"time","ankle_moment","knee_moment","hip_moment","ankle_fx","ankle_fy","knee_fx","knee_fy","hip_fx","hip_fy"
0,-70.9792423147,-3.6716697675,15.7434411611,55.551868125,-541.0677689694,89.5405433662,-507.0806398183,103.0596111445,-384.3681465536
0.0066666667,-73.6233597343,-15.0494613459,-3.9073429035,45.280525625,-533.2370830381,62.3910791262,-498.6113340191,63.2693095843,-389.9017638035
0.0133333333,-73.4425224409,-24.4902037679,-23.4576489123,31.109183125,-541.2763971069,31.3416148863,-506.0120282199,19.5790080241,-411.3053810535
0.02,-72.8448181123,-22.1010841153,-13.5432973641,32.6490140625,-539.2229542444,37.5456283237,-500.3663641478,45.3550145259,-401.7064963214
0.0266666667,-75.3012269764,-27.0553806468,-20.2492909147,25.542741875,-554.0308196069,24.9255150575,-521.2068287403,42.8381023234,-422.8712670399
0.0333333333,-80.5784140229,-31.2674018286,-18.789995415,26.4814178125,-550.3444836381,29.95934323,-509.3056391543,48.3359013041,-415.5191218506
0.04,-80.2698920175,-29.5510944615,-17.2140626645,20.140431875,-559.2331325256,28.8196981437,-533.8605385638,38.0446687497,-426.8252874936
0.0466666667,-86.9587232999,-38.4818721051,-24.9666515844,15.3851925,-569.0801925444,23.2707703801,-531.8286020615,10.2890565482,-442.2886012499
0.0533333333,-89.1300217301,-39.9851295825,-26.1393274248,11.02278875,-574.3074422162,17.7866307387,-540.460370692,44.1430132705,-435.596787067
0.06,-90.9558111492,-43.4786953633,-24.4667541082,5.65,-576.7613098881,15.4028056076,-540.8141668723,45.1277108936,-435.5898222721
0.0666666667,-97.5998959952,-47.5588651089,-30.4787745483,2.8642065625,-588.0981209225,14.3963977937,-556.0163647381,29.1369397398,-465.8369837467
0.0733333333,-93.6621577735,-42.1716606961,-13.8616266813,0.24682625,-599.8998126163,18.5265348312,-573.1023186743,59.9169918611,-481.4176364747
0.08,-96.5451784161,-48.6106898137,-54.4087484668,-7.42567125,-620.6312188975,-23.2372499249,-590.0427551559,-42.224545083,-469.9069569141
0.0866666667,-92.0507013757,-36.7869197577,-2.3008795434,-1.6597371875,-603.2799268131,24.6742372075,-560.1282853932,66.4552819076,-468.5264551237
0.0933333333,-94.6000223292,-39.6600394706,-17.9103814101,-5.4085821875,-623.6524407569,2.525192245,-585.7383031499,39.7659511808,-471.4402518958
0.1,-98.6171226658,-39.7263559037,-19.038127089,-5.9177653125,-639.4243061225,2.7615009563,-604.4471264994,18.6974778923,-508.2962518332
0.1066666667,-93.2918731802,-35.176549839,-16.2807566429,-13.208413125,-649.3988143819,-7.6867984088,-613.7422343885,12.9835745272,-501.0863083872
0.1133333333,-102.9008673536,-47.7820615317,-44.1699438931,-23.4314178125,-654.5620207162,-23.896281335,-616.3829497696,-114.4581752209,-534.5396565352
0.12,-107.6443741872,-50.6683394462,-21.3103903105,-29.817164375,-669.7554944725,-27.485073125,-629.7254038326,193.0265221689,-478.7239475886
0.1266666667,-105.8521162785,-46.5421063941,-37.1813246019,-33.796009375,-680.3791102412,-27.4729326325,-644.9896246588,-104.1488430505,-565.9796307105
0.1333333333,-110.7630425111,-50.1039716004,-32.5596950612,-37.509183125,-683.6318465819,-25.376089715,-646.6007941949,-75.2316467931,-567.6199167821
0.14,-112.6505018304,-52.9080234594,-26.4198528715,-44.718413125,-687.6454657319,-39.42923017,-652.0982763654,101.7220521741,-530.8259863638
0.1466666667,-111.5308470087,-48.2597247624,-23.5715123275,-46.9553615625,-689.754204685,-33.8684428313,-656.9462508326,12.4505204348,-581.7798762771
0.1533333333,-116.4768141853,-53.1262735747,-30.0950316102,-52.3121878125,-693.5006514694,-40.699928115,-657.0216206285,-4.410782775,-554.8206613139
0.16,-112.3951265143,-46.3617627453,-12.9400911712,-52.4413709375,-693.07797261,-35.483958095,-659.472381361,29.6755340531,-564.5001345791
0.1666666667,-120.4459726874,-52.0860745257,-20.8942244343,-60.074375625,-707.8078627194,-46.5225933713,-672.4468986129,72.9096473224,-558.5152896093
0.1733333333,-121.1610945129,-58.4937125418,-72.9706118735,-73.9994459375,-714.7230484569,-83.8245463737,-669.926761872,-276.1262431016,-591.2649827496
0.18,-121.1308440631,-46.0884942566,23.715916985,-70.702741875,-717.4409553194,-23.0518987275,-695.7452452532,182.1628630905,-587.1933304244
0.1866666667,-130.5043234526,-58.6656203171,-37.3773244066,-85.4194928125,-736.1460217881,-70.96208179,-700.0698363898,-38.455718854,-613.2800462146
0.1933333333,-116.6921587174,-42.630172552,-18.0375479002,-79.4212771875,-720.2872728506,-69.6202750275,-685.9088576559,-23.2279286235,-600.7320761979
0.2,-124.0568418629,-50.7680347379,-33.4625369551,-93.8151925,-729.9110364694,-82.9802965525,-678.8847624511,-42.3473428824,-551.7834840943
0.2066666667,-121.6619581395,-43.8292568509,-13.7439720907,-96.9889671875,-723.7240868037,-79.15779749,-715.9978520815,-31.984275746,-691.3597922755
0.2133333333,-118.3736876507,-37.6707197281,-13.2613100879,-95.385530625,-720.1666118163,-76.6728304351,-676.6964222789,-34.1603215532,-544.5563262593
0.22,-119.7102809395,-45.3965381057,-31.7776386655,-108.8106946875,-708.4105200631,-103.9545033412,-665.3047586518,-61.9059652671,-569.2533063015
0.2266666667,-110.8966558665,-23.2560233432,5.8181996414,-98.567840625,-696.9229284225,-68.8033600013,-663.1327832456,-14.6750105332,-576.75772616
0.2333333333,-112.0757010304,-32.7634576283,-2.8907442035,-115.688798125,-682.5695763913,-88.313156305,-644.2577394898,-0.0427100831,-536.4588303448
0.24,-105.6890127197,-24.8636541796,-24.7215593067,-110.7463475,-669.1941950037,-110.7782194138,-633.1560693346,-118.3437842218,-525.3228358186
0.2466666667,-103.9305034249,-20.1942536314,25.2910822615,-119.7959625,-656.9461004819,-82.6270921575,-630.5325154015,121.9272214186,-572.8623379837
0.2533333333,-108.8323212632,-31.5031365854,-38.8504021826,-133.9302159375,-643.8838839287,-115.5541142513,-604.1681280948,-283.7672041313,-513.6417158766
0.26,-100.1864665008,-24.7622615064,-0.3448297417,-142.0109390625,-619.4195747006,-117.8325943462,-587.7193719656,128.7678901058,-444.406101386
0.2666666667,-105.935334325,-29.9104225102,-21.6404299043,-138.771155,-600.5148280631,-111.7880818738,-561.875954232,-127.3311039419,-522.919897323
0.2733333333,-96.8378100166,-22.1832334054,-30.5397174291,-139.3440659375,-569.8859398725,-118.8278818475,-538.8355354961,-203.0930290533,-468.1235174171
0.28,-89.9500520113,-23.7910639465,-7.4991747525,-147.11154,-522.69586641,-111.8977394888,-474.8306954393,118.4258915151,-298.9689257992
0.2866666667,-80.7672573303,-20.3323733871,-37.6010129625,-135.7044509375,-472.0280588319,-115.1159720187,-420.267129428,-165.6556493186,-354.3292762754
0.2933333333,-71.1220138257,-9.1369073973,42.9760908045,-126.9556996875,-415.937182785,-41.0375712188,-388.996933764,94.7993516151,-310.8841078578
0.3,-52.0223660125,1.2906227967,38.9429382538,-110.7115215625,-348.5235189131,-35.7806523362,-326.4478567669,-10.6149703982,-286.7172526722
0.3066666667,-50.3010919045,-17.6213018019,-53.8826487102,-109.19154,-295.2967398412,-115.4174462738,-225.1816304089,19.9957481183,-33.1334342845
0.3133333333,-34.3352162195,3.8548690036,46.2175471436,-81.420244375,-229.368810235,-1.3844274025,-204.0066096265,39.0094392694,-132.1263793345
0.32,0.2737803611,5.567322016,35.9773302251,13.453408125,14.6230331525,64.9840737487,38.861476724,43.1206330208,39.5614834747
0.3266666667,-18.2546820563,-3.3738563646,4.417902784,-55.7373334375,-128.4552562537,-26.926678135,-81.5080741354,96.1179067071,59.6872643936
0.3333333333,-2.8489250624,0.9224818189,5.7032581776,-26.2248828125,-76.1132647131,-15.3822132275,-14.9646574551,41.2601005163,39.2849188527
0.34,-9.1800587571,-4.4334396597,13.5755911086,-19.1699346875,-53.6518877788,12.8698896325,-6.694677668,36.1536491606,112.2826138726
0.3466666667,1.4187419433,3.1849090808,40.3313183159,20.60431875,19.2093121025,62.4062770425,56.1165304441,227.8639484505,113.9434163695
0.3533333333,-0.5452893126,7.4756257538,36.9955902557,20.361915,14.3230585119,82.57589064,40.0815591601,7.0480712522,142.3282053961
0.36,1.4640386421,1.5591513147,10.7619974371,16.483455,13.7273512963,40.3018803,54.2842924441,20.0954781718,176.6606435929
0.3666666667,2.4863811721,4.7565476927,29.8360681688,15.3320371875,8.3296257931,44.14269249,34.4115874978,100.0772140322,189.248851381
0.3733333333,4.029490742,5.6599127001,17.2752915243,20.240713125,7.85754449,40.54856373,50.3230691169,-10.8693440282,211.2923226992
0.38,26.0491704143,21.7646777283,32.0246393686,19.6425628125,33.6503032712,41.2571618813,66.7072389591,17.2679773494,225.9264230601
0.3866666667,25.6391366506,18.5439463071,39.2047834686,32.2622246875,39.9669650681,51.2959761062,85.7617054271,61.7897648401,254.6887685261
0.3933333333,24.4977750048,16.7827501809,42.9362548752,28.5744125,39.7614438212,53.2658172913,79.5529148845,52.7545025235,244.6188413257
0.4,24.3307532036,7.6515431713,-13.3653294816,22.0233796875,40.7444045525,-0.4711951462,117.8968325409,-98.1867613883,362.2073159499
0.4066666667,20.9964751758,20.7070399404,44.8293603096,24.688403125,23.9167741869,56.865043465,46.4162550496,-16.0517565291,160.8291154066
0.4133333333,26.4233657987,27.739636046,57.8941028682,29.6697740625,23.975634865,51.9575701388,50.7182002844,159.5041096748,292.9292157872
0.42,22.6567988498,24.7468310617,27.5834207338,19.721389375,12.4492261994,38.7473671562,43.7524292672,-141.2543687637,178.7563614273
0.4266666667,24.1129089273,22.3706238313,38.4998051687,16.6360278125,19.567316415,21.180496295,39.8281451505,117.769276289,228.0968729481
0.4333333333,25.5092222282,17.9935452698,14.5635944631,8.6818965625,25.7699056712,4.065910615,45.1316354935,-91.450528685,170.2849466161
0.44,13.6128130949,17.8492634789,26.1744199133,16.5808353125,12.28237459,36.8972369187,28.0102398265,-59.0097900513,129.8097223603
0.4466666667,21.6051339965,10.1727500803,14.0455179811,8.4394928125,29.84520929,-4.9840244224,51.1507371691,33.2556920696,187.2726969445
0.4533333333,24.6052270168,20.7327934088,36.2454118046,11.7407415625,24.3524497431,23.3934241749,38.1180934019,25.4434176429,154.7880770519
0.46,14.3401565291,1.4655784424,-12.0072530213,-0.0477653125,24.3555638587,-30.8539133612,44.8090233315,-63.0193997852,150.9172796649
0.4666666667,22.2499630149,26.7177953445,51.4756569442,22.4652578125,18.6616091994,51.7493276388,24.835596212,53.0915289047,125.930600621
0.4733333333,7.6103562529,10.0520797238,35.8007233482,17.2304971875,19.8609080525,42.8283081112,32.5230061318,110.9870401253,164.5111280398
0.48,22.338489765,9.2501220042,-6.6447231727,-0.95278875,25.2190431494,-30.172337385,38.299751608,-117.147926301,88.8205176261
0.4866666667,19.9274962685,6.9817548571,1.9090901853,-0.205624375,26.2943361619,-24.969323995,43.6985085889,-43.419265207,140.5794271183
0.4933333333,11.1681153715,13.4127300369,42.6656047978,21.5301590625,31.1808285931,64.3185919538,47.3830411899,59.6078679337,150.5304062648
0.5,18.5651138526,6.7404312425,-1.6383811875,2.3310796875,33.02098874,-19.6994089875,41.0816375739,-50.9132818155,118.7830444677
0.5066666667,13.1736165967,4.7048087172,15.6910146132,2.102065625,25.6982101337,5.0754819688,44.2526477016,9.9803162248,146.9216020608
0.5133333333,0.7479361912,2.4289962963,2.4537603663,7.99932375,-0.1435972881,1.8130630275,23.5738570981,-31.1335987366,109.1859662683
0.52,0.6263496197,0.9483675765,2.9074654059,5.5146853125,2.384067815,1.2516225075,16.336745192,-15.3684746503,147.8410118288
0.5266666667,0.6817615885,-2.8737806365,-5.3906609367,3.757258125,3.9263616744,-10.2749349263,36.3576750162,-50.9575997544,114.521869119
0.5333333333,12.8355884105,-1.1996554037,-6.0408725966,-8.3338215625,27.9218259025,-26.9345813725,38.1216243036,-57.7815385106,149.1995761183
0.54,-0.9430988304,2.0759743102,29.7076898608,10.203501875,29.5568003119,56.1495863188,50.7726981506,35.9668561708,132.3399760982
0.5466666667,18.4459376836,1.5947282113,-7.2656587967,4.1646384375,38.0982058275,-33.9502835888,64.0864952002,-78.4157308207,131.2851180077
0.5533333333,18.029009778,16.9808037481,25.2423690732,14.70932375,29.2577799494,22.050747005,36.8586958615,-56.163842113,135.5514677401
0.56,10.6350757812,1.1107835513,11.0478567772,5.96769,37.7092509369,3.05102121,67.4281089459,-29.6754911401,126.6712894347
0.5666666667,21.4802359688,8.5910006098,16.4127992921,2.2621878125,38.0855510994,-20.80219465,49.9932953956,98.7010619841,122.1398354626
0.5733333333,11.3905103188,17.4529063683,29.2677751681,19.9744878125,38.0463341619,55.8148435063,53.2897463094,-107.8863669859,91.275725478
0.58,16.6343648394,-2.7028984463,-15.100705458,-5.366103125,33.0430048744,-49.9486915513,55.842625881,-91.9001745073,141.3972121398
0.5866666667,13.3682478068,12.4934347883,26.0282882685,8.3707884375,35.3082869775,23.4703019176,58.2867016466,-24.1671906344,140.4441220556
0.5933333333,2.0745078859,4.5698183669,11.4468459161,15.3320371875,20.7025192025,20.9749206487,49.5788703793,-34.2281367112,107.5638851311
0.6,11.9782372185,-8.7186505825,-29.3111074806,-12.5771828125,29.6836751275,-59.4436659362,51.2797815764,-113.3045220303,106.7465710957
0.6066666667,-1.1498647521,2.3155811126,10.0139244021,8.0599246875,10.8185062962,17.1488616525,41.6965691293,-24.5587999095,108.5846155591
0.6133333333,6.1531010858,-3.5607566423,7.3292318575,-5.2209390625,41.5652369463,-2.4317579275,70.8336126621,-13.3895174694,111.2769800745
0.62,11.2532871379,5.3298067686,5.3405346519,3.390525625,44.4906441556,-8.5653288501,90.4584256854,-98.5448920283,177.621759705
0.6266666667,5.6891931736,-5.7425897549,-0.2512482201,-2.9610328125,46.7629413963,-17.8833073574,68.1132454274,-34.9176641652,141.7016457961
0.6333333333,12.7275327992,6.375598449,1.9088874742,6.6290140625,51.2602400963,-11.9631947463,74.5672464225,-69.8506546384,89.5175484135
0.64,3.3618123203,0.2934100001,10.2666112036,3.15124875,26.983200365,-4.5819658349,69.4096235953,-32.964669855,154.5227274271
0.6466666667,0.6719832184,-2.66826753,1.8418229273,-0.363605625,23.2156400806,-5.9971607213,64.5752948104,-30.2798778053,71.8714987881
0.6533333333,10.125053787,3.041880585,16.7107394681,-4.1244225,51.3074047744,-15.3518871412,106.0254492042,-55.1066103532,238.3449788322
0.66,5.6406907687,-1.5208938269,-8.1802341982,-6.979661875,39.8187242275,-24.6343700013,69.3579878893,-63.9014504253,65.5449316531
0.6666666667,1.6966756427,-12.8467462244,-2.021072126,-16.858600625,50.3319494619,-46.3665512112,132.7358349425,-79.0930635612,280.9851867917
0.6733333333,9.4872596821,0.3209029262,-4.4620159854,-14.204563125,45.6416105712,-34.055323845,76.4818002424,-61.095826599,110.960775574
0.68,0.8338310113,-9.8390044366,-17.5181001671,-14.4836240625,21.4703330806,-44.2558783237,67.3041670626,-82.1807574818,165.46573971
0.6866666667,4.6094376029,-11.8305824302,-3.527088227,-29.2481403125,48.0631788494,-50.1817687363,97.2071442834,-7.4988215982,130.0615116276
0.6933333333,0.0196299271,-14.7776316009,-13.695206883,-24.8663375,52.3510823306,-65.273705225,118.8941897845,-104.0034317031,298.2437889577
0.7,-2.2330788765,-20.3966862867,-11.5488489948,-37.487726875,61.2847568087,-65.6181888963,115.673533275,-6.1210343642,163.6443536075
0.7066666667,4.2687213451,-10.7582848966,3.9246217781,-30.0351071875,45.9709513869,-57.6447354962,110.4087634648,-49.3950504661,286.959151003
0.7133333333,5.8258803623,-10.4166796735,-4.540841332,-28.38604625,28.98312199,-65.2276464538,88.8926736196,-27.8898323999,232.8671026006
0.72,6.2919099893,-6.5161981487,21.5921077613,-30.78527625,35.3732394087,-39.4419989699,88.489067187,39.726570942,220.7560450194
0.7266666667,1.865658655,-21.4121020774,-0.979175375,-40.27623375,22.3460430713,-71.3326929263,82.1142311029,29.5549186357,249.7194508387
0.7333333333,3.4619009316,-23.2729861849,-12.7425180871,-46.330609375,11.87171279,-54.55511785,0.9484703161,71.4697692741,53.105206872
0.74,8.4683581911,-18.5187459603,-35.9460901742,-31.3435203125,15.3860968681,-97.9418275025,40.4816072949,-93.3541977784,214.0213924167
0.7466666667,1.5951201691,-32.2633281979,-41.7139468281,-54.164834375,7.98012684,-91.6726353125,18.4856390831,-40.9104414007,122.6506625783
0.7533333333,3.125217825,-22.8601894866,-25.3592941563,-36.85507875,6.9516258025,-76.2938512425,25.8603857676,-13.5749402324,162.6863502282
0.76,0.4858271275,-19.5888432116,-8.8717413626,-34.6354921875,18.3234496681,-62.7504069338,54.7860625866,-12.8427714998,245.6809598453
0.7666666667,-7.2992330424,-29.3745611974,-22.8266894416,-39.5498678125,22.2335895275,-69.2195100587,56.340370507,-14.6508617627,187.8732802397
0.7733333333,-3.6274374507,-18.2020301193,0.061521723,-31.517341875,29.8599986556,-46.9697784976,61.4799074889,43.9116871184,196.0333618695
0.78,-2.6768014735,-15.9627305396,-16.7814850113,-21.9101590625,22.5912643119,-49.5275610087,40.5435870136,-11.6523930086,119.4139162797
0.7866666667,-1.2561292908,-22.7616834907,-39.4787308088,-30.1186659375,1.996221815,-71.8327821263,22.2210974771,-52.0903508064,120.4967690681
0.7933333333,0.2928356923,-16.4818765231,-39.3002719035,-18.301483125,1.6095878338,-61.7382373837,7.7803176923,-65.5707309457,78.5186116691
0.8,-6.7340091402,-53.9373048004,-131.7651267254,-2.2785821875,-420.6547404538,-32.0026398962,-390.5626701084,-29.1004551482,-325.1197980576
0.8066666667,-7.5159802496,-10.4418001593,-43.8182018335,37.164215,-364.2255830069,58.3551508249,-267.6215628105,16.8415994989,-227.2797481923
0.8133333333,7.9931082249,39.855351362,48.5726625264,75.5366840625,-367.5472836319,151.6095006376,-228.2436754472,23.9015357356,-34.921690079
0.82,14.6946747307,14.0506461499,-27.9682572614,81.9055021875,-470.1073836662,71.2322979,-415.6253390973,-29.8517910961,-114.3539170935
0.8266666667,3.5494954095,-15.9751390766,-85.4395985141,91.1559725,-497.9482918194,14.6610474088,-472.5137419667,-110.2394206651,-170.7560974937
0.8333333333,-9.3209353902,-42.1127780784,-78.8771525349,51.134010625,-495.9761764006,6.7177780412,-441.8977313171,68.364348357,-280.1579547857
0.84,-4.8823522976,-43.7952557234,-70.8788479659,36.3362921875,-532.1252756163,13.3488687363,-496.6588232489,101.1103673885,-298.0726629682
0.8466666667,5.0028286133,1.2407605973,-2.6130275966,74.7572865625,-539.2432494975,99.3989400737,-491.8934240512,195.1639351635,-416.7417261232
0.8533333333,-3.7983728235,23.3506445863,9.0320378464,117.4752109375,-544.8076853631,147.992957035,-505.2263434951,163.2708529272,-461.5806306283
0.86,-4.2801769316,47.4286453429,29.7514967213,136.1121778125,-553.82101741,199.6173546413,-536.8500309327,140.9747585872,-479.6326984923
0.8666666667,-3.2118041179,6.4311980876,-90.6362500859,100.201784375,-599.69086141,43.7185343,-612.9445393492,-23.2234579419,-605.4317367544
0.8733333333,-8.8173476026,20.7045119796,-71.4176457006,114.808028125,-615.8687206319,78.5214656388,-601.5934994877,-31.4703894314,-533.5985512731
0.88,-13.0148550223,-1.9399595829,-136.3198740232,93.243803125,-633.9000331631,-0.6726209675,-618.3688176345,-171.3333935795,-562.497237257
0.8866666667,-22.8697429411,-0.4932799694,-118.1259067574,100.871108125,-638.6885592569,20.2102906975,-595.9464719287,-109.5500348705,-525.5928476269
0.8933333333,-20.6550170457,18.0108446381,-78.2601799704,107.2306478125,-671.98803301,68.7324854574,-635.6058539188,-54.3405057606,-476.1632063266
0.9,-15.8938425906,12.8780788601,-94.666187073,89.67394375,-692.5937711194,38.1922520426,-654.2473337574,-81.7560378153,-587.6755449803
0.9066666667,-23.8958442267,18.2435673657,-58.5958359133,95.291295625,-704.4171045538,84.8178738212,-673.1718617271,32.957300037,-546.4403396979
0.9133333333,-13.8443648231,16.3673198417,-70.4005183659,82.3137278125,-719.7261207694,49.5120870175,-694.0363779448,-3.1770060664,-582.1213849174
0.92,-19.7460446714,11.8076339865,-55.6300234153,77.9240659375,-732.7681327569,62.2640731937,-706.388977117,65.0952420017,-621.8570203942
0.9266666667,-19.2845166353,26.5047376439,-17.0497469756,83.6446853125,-736.4582912131,105.9480286638,-708.0040874208,116.6619668118,-605.3687472732
0.9333333333,-26.8001982447,16.0793263262,-15.2341052675,77.56163375,-727.97034301,98.2216301337,-674.7269265194,129.8260906317,-563.0981277302
0.94,-24.5837455929,21.9380517859,-4.7238285082,79.290816875,-721.7562132912,103.6292985238,-679.7972266575,116.8335289677,-550.0799577909
0.9466666667,-33.4424992684,14.9081015879,-18.3382141552,79.6494459375,-709.4945288225,94.9083189862,-667.0377184433,97.1784618683,-558.8325981214
0.9533333333,-33.3760095736,-4.6585132854,-63.8747876471,55.558225625,-695.0913871944,25.576860515,-653.8496585455,-0.8765771351,-504.5781505999
0.96,-45.0093269141,9.7798605761,-32.6437416994,73.626581875,-676.1610398506,94.2959066238,-645.4132942767,55.8100015397,-612.1754408565
0.9666666667,-35.2998816612,-8.6747970602,-78.4350883285,46.871784375,-662.4132204381,3.0261367837,-632.3264983554,-47.9538393444,-534.9993630029
0.9733333333,-50.9023299771,6.0388903567,-26.8320647517,69.1394175,-646.9454623506,93.4631292376,-619.4638960823,46.3629906317,-505.1057179991
0.98,-38.7315807251,-14.9232989814,-88.9172075368,36.0919534375,-633.8565108413,-11.039610725,-599.8352554215,-125.0296632169,-570.8680639131
0.9866666667,-47.3089456779,10.1686261215,2.3443396717,60.31182125,-620.4254724944,94.3805649575,-591.1384400485,220.7179222173,-493.6160108611
0.9933333333,-44.3572451887,4.2677906103,-26.3307643651,58.1050703125,-600.681532285,62.1605769963,-538.8607230451,-2.5586163236,-433.2389259007
1,-42.3819246557,-12.4998991607,-77.4484330698,35.367746875,-629.7615305788,-12.437014295,-668.4908334074,-48.5793933592,-565.8749042834
1.0066666667,-49.3071613658,0.6368564114,-15.1618049944,51.4163190625,-585.7249304256,65.9382512763,-519.0827090937,63.8148746704,-432.9124146351
1.0133333333,-50.0753444627,-0.4599349169,-14.7874882602,48.8591078125,-567.5260047381,64.6714638512,-482.5634808899,39.2666949152,-385.4430019229
1.02,-49.6830272,-11.0587772463,-51.4892983119,37.663896875,-592.7036301756,12.5154021988,-597.2765259867,-10.5221687373,-474.2953557489
1.0266666667,-56.8291643035,-8.7829328824,-27.7829594644,48.6893990625,-570.2382122162,47.2870348575,-535.9304593864,33.4010513894,-422.0961422206
1.0333333333,-49.773604086,-3.7990794119,-22.1717633875,46.7093990625,-557.0022772288,39.9455570737,-509.3718934314,28.3533884677,-405.674628261
1.04,-58.4982314595,-13.6691421707,-28.0908364332,37.0109859375,-555.5172313506,39.1106454263,-526.5660589129,40.5262298304,-426.7666219693
1.0466666667,-58.0025321614,-14.3049754607,-33.094398234,38.6025728125,-548.8786175038,29.4825412975,-508.2134984164,17.8903726914,-403.6138573684
1.0533333333,-63.6011503832,-13.5819085897,-19.1044017091,41.830816875,-557.3177494475,48.827090625,-528.3549243272,49.998853635,-430.990860686
1.06,-63.4230530045,-15.1240593758,-27.9065711928,39.018798125,-559.8345452662,35.0519109088,-527.5498893694,29.8535441009,-430.1441630434
1.0666666667,-64.1269429774,-17.0591328286,-30.4834836593,34.2118028125,-551.1546150444,30.7097791187,-521.3852905807,18.0926137785,-429.1926076904
1.0733333333,-67.3935380001,-21.0022088899,-27.4957404058,34.03,-549.1183204162,30.5116516676,-510.0279614928,28.9256290077,-406.5506090165
1.08,-73.7483431552,-26.081478749,-33.4288504867,32.4225728125,-541.3085481881,30.8118751225,-501.0387807568,22.9291057826,-393.9351176644
1.0866666667,-72.7339691449,-22.3474341773,-29.4000636715,34.3170421875,-548.2542667756,32.0572457662,-519.1966343724,13.0462786281,-423.899371305
1.0933333333,-79.4935325963,-31.1719818223,-29.7556299659,27.9885821875,-545.6891711038,31.3063706726,-510.3993513277,46.8517599387,-415.2805749894
1.1,-75.0133078776,-27.0512580474,-33.6423858378,29.211586875,-551.9574996975,20.4281538637,-512.2952187159,2.1249789276,-404.8251133731
1.1066666667,-84.6722097207,-35.5940350987,-30.7488455655,26.0006009375,-545.7232750006,30.199919915,-505.1549532475,35.715491255,-409.4285171826
1.1133333333,-80.3172380965,-29.6710523541,-26.3442153874,24.59836625,-560.4123236413,25.7123285038,-529.0157902815,29.4217277697,-425.4188943064
1.12,-83.4523818517,-30.6789010476,-20.3281880824,22.317643125,-571.6113770506,30.091280625,-544.0954279836,52.4210593591,-446.4458802636
1.1266666667,-86.3409230256,-40.8072788883,-38.2389643677,12.5121409375,-567.8762192881,9.0738610712,-519.3324797264,10.245624081,-411.7941990812
1.1333333333,-84.3751587811,-30.5011156982,-13.0460000035,15.7810328125,-588.5513128069,27.7298910138,-562.442765262,68.0456401519,-463.880662713
1.14,-89.4048107506,-34.4992906266,-5.885322888,10.7778121875,-599.0210664381,34.939832265,-571.7701595417,76.477055571,-480.6564454997
1.1466666667,-94.8367650188,-48.8992313414,-76.9236395767,4.2213709375,-602.1453478506,-29.7898478525,-548.9967697375,-98.1474244984,-411.3969682508
1.1533333333,-89.5442617248,-38.0467000609,-19.3863893673,-2.235239375,-613.4898370506,10.1940296237,-599.6596722006,7.9996370777,-513.7270444212
1.16,-99.2901077377,-39.6487670473,-10.6677345184,5.0709575,-604.7580416225,35.4526649413,-544.9271436571,93.1436473992,-435.6835335728
1.1666666667,-98.2495346158,-50.523065102,-49.2252084485,-12.4435771875,-640.6246486975,-29.6823957075,-628.3896731307,-20.4574251016,-528.3826329225
1.1733333333,-105.2151681986,-38.8821004527,-19.2864402474,1.9091546875,-636.8388566475,32.8039222038,-598.2783721769,-46.556390746,-509.4920872085
1.18,-101.3707455426,-53.8673083016,-37.8791379785,-19.9178590625,-632.5388918475,-26.8985855375,-590.6005131268,93.8758564223,-467.5686848517
1.1866666667,-103.1113302326,-48.5467654788,-38.5252730382,-18.7749765625,-648.2316982694,-17.5568475662,-606.9956132813,-3.4270427042,-499.2475988934
1.1933333333,-107.3871233064,-49.4915444768,-32.0873233153,-22.3609859375,-664.4913685975,-18.0893721313,-627.9600134026,65.4443108927,-492.6528431788
1.2,-106.1360919918,-47.9681879045,-40.7405400376,-26.128798125,-665.4662053006,-15.3180004537,-628.2815924784,-159.5182338216,-575.0783176866
1.2066666667,-101.4780293338,-45.8036782556,-31.6682690203,-33.352835625,-674.3320456131,-38.9226468938,-635.5230923671,63.3284707161,-502.9831766054
1.2133333333,-106.0226051863,-45.8141831073,-24.1922073554,-37.71836625,-683.7074105569,-24.5031825,-646.1707452396,11.712579702,-552.9016974186
1.22,-109.0063389784,-53.0735997103,-56.3333507752,-43.9966103125,-691.1464985444,-60.27305251,-652.098039527,-71.841549136,-532.8944438576
1.2266666667,-111.7113405742,-45.8919646771,5.4420046267,-44.9117559375,-695.28070726,-5.4589908975,-667.7646882303,87.5221793445,-593.8900936233
1.2333333333,-110.4817050059,-51.6822900436,-30.6072680216,-58.1126196875,-695.65201011,-46.86105677,-659.6497520043,-10.18132376,-553.1364680931
1.24,-109.5507851833,-59.2459084032,-53.4509694719,-69.20528625,-696.4049188944,-87.6863320425,-667.6808843708,-50.5923393825,-594.9039594764
1.2466666667,-122.7921706555,-45.0936131263,1.0028341134,-52.3507984375,-700.1911108569,7.5310859525,-638.4424021048,55.0951953665,-515.880225913
1.2533333333,-108.3432490183,-45.5504404385,-19.0251934613,-67.415624375,-708.3480938725,-66.4384781413,-706.954645166,-28.2697775892,-658.886059556
1.26,-118.6564483169,-53.3309799665,-22.1839868592,-76.596009375,-716.541470035,-57.7472705288,-677.2570966668,8.1200138213,-569.0257004472
1.2666666667,-122.5089525906,-59.2592268902,-42.5669248732,-89.2394928125,-722.3803703631,-79.6227258612,-679.9470674637,-49.0929732552,-568.1965946973
1.2733333333,-114.0268880676,-41.5618861987,-10.0948931967,-78.465051875,-721.0015318225,-59.4157531813,-685.3773057084,-7.5078354373,-593.7996208584
1.28,-121.4210847972,-54.5936184343,-36.8754838301,-92.52846,-725.8140783506,-92.4888144488,-691.2015989308,-56.8340781727,-601.4419221448
1.2866666667,-113.5439214331,-30.3746156034,14.5434746826,-83.3360846875,-721.383266085,-45.1488678325,-699.9414585669,24.9888417095,-657.6161687444
1.2933333333,-117.348911455,-45.6346092155,-27.344609374,-97.1478121875,-714.4098836225,-88.4048020913,-663.7726335193,-61.3642993373,-513.0611590303
1.3,-114.9612891981,-38.9360630807,-31.8721281096,-99.8461784375,-711.9078255256,-97.31352734,-675.0828522688,-109.54010501,-537.9063057844
1.3066666667,-121.9046833067,-42.7481756949,8.169464482,-107.871155,-710.0988232975,-70.0454122887,-677.6218787035,62.3235654753,-643.4885142799
1.3133333333,-117.7364191163,-41.524803252,-24.0248203866,-113.2125728125,-690.22987686,-102.8262157488,-657.0431214259,-22.8551657148,-600.7823736973
1.32,-117.0872394894,-40.3201338862,-27.7916273147,-121.083990625,-685.9184619663,-102.2912219688,-652.9809293504,-141.5796071748,-475.0362621902
1.3266666667,-116.9044605964,-40.5108202158,-17.2919079577,-124.5165634375,-671.8754898631,-105.8279615237,-631.9976536873,-3.8680092676,-577.7672516833
1.3333333333,-109.6752514235,-29.3684244871,-2.891764504,-126.2785353125,-658.5381513538,-96.6827426225,-627.3211579258,-27.7404680706,-559.1200267653
1.34,-105.2241845131,-28.8147265867,-20.671213421,-130.4749765625,-635.3390802725,-116.0416638163,-603.0955002763,-89.8557195404,-488.7176744497
1.3466666667,-101.5782261703,-28.5274622956,-26.2807610607,-137.350385,-618.3228912288,-122.7087387687,-561.903609553,-77.0241845666,-438.291817768
1.3533333333,-91.2520564994,-15.2385108341,7.4487113169,-134.655145625,-587.3147959413,-102.87962498,-565.6615532568,-36.474986684,-508.850668713
1.36,-88.7845448296,-16.537530115,-3.6656935653,-133.871878125,-550.8278665631,-102.4648278975,-518.0447961244,-63.7587733996,-402.2201388801
1.3666666667,-89.7220483179,-26.7542925882,-35.167663473,-140.871493125,-508.6614552819,-118.2634231837,-455.8234884024,-96.3242321197,-353.6362588362
1.3733333333,-65.5459591809,1.8937803723,59.8414132235,-129.4783946875,-456.707709335,-44.2334632263,-436.2973935504,100.9988684697,-379.1328496254
1.38,-68.110458614,-17.2094271837,-23.3779610138,-128.6167325,-407.1193148069,-97.425789395,-349.1812198364,-63.3570757789,-188.7372474902
1.3866666667,-54.8612229116,-12.1801681546,-6.931107255,-114.229089375,-338.3634034881,-75.8498636738,-287.2811903744,-22.1594458359,-192.0054688088
1.3933333333,-38.2005230302,6.8358333999,50.109370776,-89.1915215625,-268.7135703975,-15.4383584174,-254.9294254815,99.6050971847,-214.4862947889
1.4,-31.7361594666,-1.3199922415,12.3865468568,-80.4648828125,-214.5093181881,-32.011800275,-177.4963006401,18.0426014348,-60.6906765447
1.4066666667,-12.4995509854,22.1967926538,44.681286628,-29.1244509375,-165.6527894881,8.7743639662,-116.5869024691,109.0015272864,-51.0325353925
1.4133333333,-10.6264334825,4.9918759833,33.116709853,-47.449568125,-112.098959935,6.8531766313,-74.6178916731,45.5615983272,27.4722827751
1.42,5.2059880378,-13.4719984929,-18.8293506096,9.5143471875,38.57494769,3.3273091012,97.4460346333,5.3773025693,179.8205270988
1.4266666667,5.7137914357,-5.3582976443,10.8715687844,13.0292015625,27.1540950088,23.25464433,71.5931907241,76.334325084,124.4366514199
1.4333333333,-1.7790415338,17.4131138315,78.2938778012,35.996956875,15.2278305087,137.6248293674,47.1437516844,185.0918836633,157.070061672
1.44,0.949758855,-2.6300410714,9.4874944329,10.302159375,20.040756965,35.4747523276,55.6348524601,47.3841254657,152.7037265107
1.4466666667,3.2640605957,3.9690688516,24.3793729883,14.180619375,10.1088693181,37.5816003413,31.8033122814,61.6938791692,154.8517109424
1.4533333333,0.4159784356,7.7674197309,30.9905222931,26.300806875,8.63323649,72.5430669075,57.6296271897,71.8352747055,222.7400569533
1.46,22.0013487177,15.5862304173,24.1359973328,8.99461,26.5243936431,18.73964197,52.2852263826,28.428583384,199.5562152984
1.4666666667,25.3201064632,17.7225699062,25.5401349966,22.5285721875,39.4444946181,37.6677312188,81.0997730084,16.2895660808,258.2145005498
1.4733333333,27.1268212342,12.8064194836,27.8634722185,23.4069384375,52.1465677713,42.5689548749,103.9046986656,33.5641336831,261.8721084642
1.48,26.1685341389,21.1711068404,49.9088448343,33.726478125,37.7613034994,56.270026875,72.5270401825,71.2307182348,237.7589072035
1.4866666667,19.5379132928,6.3433814966,-19.390408713,22.029943125,30.0744100869,-6.2427764625,102.7967198004,-111.1333198424,335.607828765
1.4933333333,28.7348010454,26.4921491136,58.092941481,22.74076,26.98913859,55.542400795,48.8717035807,70.649858431,186.2577470882
1.5,1.8772246496,7.6815643923,11.5789463835,19.2104971875,-3.6414834006,29.3170033013,32.8966426325,-23.2253235068,206.5412946257
1.5066666667,21.1492933273,24.8205370108,45.3942787114,19.7996803125,14.6423876525,45.1246365599,32.4171293791,38.487013368,173.1037570579
1.5133333333,13.9209885423,13.1563330926,16.106426733,7.3295865625,12.1383885744,14.6469115413,28.0220375064,-18.8844481288,185.9565432528
1.52,13.6530448107,8.4117532529,4.8291855153,2.8659340625,14.6145564056,-0.87629503,41.5358377511,-48.6108426999,192.5796668393
1.5266666667,1.6048533293,6.5723311084,15.5099156326,9.2719434375,-4.7510865663,16.885444005,6.5814862914,9.5400286109,112.25749227
1.5333333333,12.8592770038,6.4301279466,-0.4849065608,3.5828825,17.4223905713,-8.4219458912,33.7646063794,-47.8594645712,155.5105727008
1.54,18.4738326261,15.951856832,31.6339781651,12.44701375,20.3468959119,23.4428239937,40.984512857,62.7809203577,175.5819971204
1.5466666667,20.0120022997,17.4556692311,17.2237089084,5.7995865625,19.920354915,17.0597004813,26.1255919504,-107.5211958627,82.8327932218
1.5533333333,20.6258195601,8.9487885778,11.0699036729,2.537258125,25.1354201556,-19.1892813238,36.9098465687,40.1113957743,132.9579848417
1.56,22.0411211483,21.1386166935,45.4224098013,20.28105125,26.2469580025,40.4932861137,43.8931237649,91.2034016697,195.0356650097
1.5666666667,10.1549198862,7.1704028871,2.900094409,4.48932375,13.1189506275,3.8565496575,23.9044148779,-73.3330427266,51.3026275518
1.5733333333,20.4081379937,20.7279612157,43.7497476986,17.6348728125,30.5290067212,49.1149952325,39.6041152489,30.1774112326,148.5205785697
1.58,2.4828860535,-7.1729960173,-25.3945749537,-11.63538,-3.2039446319,-55.0884588975,9.2621023096,-55.9430173756,88.3741224916
1.5866666667,10.0674552878,7.4917849798,19.4496284542,12.9124221875,27.1621027025,30.6324288688,49.0605259138,-23.8865082691,126.8873943015
1.5933333333,16.572527171,15.7842362298,35.6138233805,17.5782625,25.3840069525,39.36932314,47.7017401705,3.153560938,184.1873015587
1.6,15.7403448112,5.6325948719,11.6830068427,-4.3394459375,17.95462864,-31.1305102175,30.0333929613,163.9266049824,101.7881617593
1.6066666667,19.387658416,11.7249057756,11.3547725424,8.2567040625,30.0115135994,10.7574832462,53.258896126,-156.6767984917,144.314613817
1.6133333333,17.1645447822,8.2817703382,11.7655848677,5.88970875,33.3082760681,1.209978975,51.2575359566,-51.7229355031,186.2737775462
1.62,4.6172368961,-8.2931897614,-12.5000411529,-4.1314178125,24.7757218525,-25.585102585,45.5531087999,-47.1834171369,118.6941087467
1.6266666667,13.0292363211,13.3720031537,40.4192297385,20.1513140625,37.115620415,51.5358207413,71.4319631143,20.6391524453,175.3564792926
1.6333333333,13.2428024791,-4.4021727787,-19.1467300746,-10.706103125,29.6529623056,-48.573046115,34.2715999272,-94.2576003171,143.7756017917
1.64,8.9869490085,8.7889971224,27.6313181975,20.2561215625,42.6379251837,46.7922105325,70.9600937431,-11.4858370295,137.6947457425
1.6466666667,11.4812776237,-5.6009059314,-19.1917522603,-8.0430984375,26.1057967025,-46.222541655,37.0004805598,-66.795859473,91.0860100462
1.6533333333,8.8033655841,9.7899902967,24.5473824344,14.7980465625,31.35042069,30.6990220688,51.2175146861,-16.3040614192,145.5747634277
1.66,12.0192158933,7.9183697472,22.8060772112,6.424563125,34.2441028556,21.6041450712,64.2244660301,-24.6177630768,164.0991798701
1.6666666667,17.1182948435,-0.4188894039,-24.7631008224,-6.7758871875,30.3858663213,-54.2914690424,35.3277317901,-115.2539191365,89.9863599123
1.6733333333,13.1468076685,13.2408630869,31.4405864916,12.4231921875,30.1978614025,28.8450014062,65.9651535411,-21.0863060077,154.4900998503
1.68,17.0837128103,13.5500064337,33.8487375235,11.978600625,42.1313139463,24.913933425,72.3524266741,10.4905960109,132.5143167067
1.6866666667,15.4757401925,-3.9901165062,-40.0008971618,-10.632544375,28.9887886306,-71.2746905125,43.8439853214,-161.8649907745,115.8421020738
1.6933333333,10.2418673438,5.1771776995,23.1841087671,2.93009375,39.0870457556,15.7612598075,75.4525970363,-3.7136781384,140.968852225
1.7,15.056142418,11.0986584759,21.3188965896,7.430525625,44.2195263494,10.204159485,75.7060317895,-40.825527801,141.1929337231
1.7066666667,7.1021023468,-0.5994461025,-1.850520193,1.26163375,41.0998091463,-12.3297940551,58.8106515726,-68.0938773412,130.8767069076
1.7133333333,15.4183659537,5.7578028486,14.0964261874,0.881201875,49.9657009431,-6.4275721024,75.4396087225,-17.3853316444,103.2241481101
1.72,1.7762628237,-4.903477162,-16.5985897269,3.5754553125,25.2730419088,-26.7168552976,73.6404675984,-99.3945682935,133.2467762604
1.7266666667,13.0421026709,6.9392110075,8.6422610542,-0.806779375,46.6925411806,-8.2033954562,65.9312143212,-55.3769172003,115.2035201142
1.7333333333,5.4928166143,-2.6444800225,9.4269692525,-2.6173803125,50.3541909119,-12.6026176813,103.7345244798,-48.0135325633,184.7208920382
1.74,6.8856968807,-1.7680770814,0.1436548622,-6.4158403125,50.1234822369,-21.66616236,100.2276706958,-79.163034582,165.3388983068
1.7466666667,1.9109342561,-3.4822578043,-4.3924367014,-2.9694459375,26.3420424462,-20.8083892726,73.0087672709,-51.7784407065,107.3326911335
1.7533333333,8.6691454025,-9.1768095591,-14.144209056,-17.50182125,43.7187626494,-56.6669617024,91.3463479372,-93.7372823825,217.0547669908
1.76,10.5286998838,4.8149726064,12.5679845463,-9.00615,44.3665731463,-22.4374408725,105.6848167218,-43.1575249664,166.7164152996
1.7666666667,11.0736630254,2.3520007854,10.5951946806,-13.11461,46.3005490181,-31.7394680862,99.198831551,-47.4316236282,202.6733433896
1.7733333333,8.5518253419,0.8193301995,6.7196762363,-14.32220625,47.4678460275,-35.1267922913,107.6673698831,-37.5437014494,157.4808171389
1.78,2.8447446406,-20.8482748095,-36.4212027986,-34.6424875,46.9114199931,-81.3014145025,76.4928245439,-86.0358105024,166.0527098187
1.7866666667,0.661119651,-12.3377551565,10.148180697,-27.6181871875,49.935341765,-38.3582447575,98.8270293413,29.7057993365,169.12502449
1.7933333333,-1.9038772964,-20.0601190664,-18.8304190748,-34.2182809375,46.4296615994,-76.7657310662,121.8695106047,-90.7250976722,315.8105182499
1.8,4.3667164474,-13.570780444,-19.8120004551,-29.2870790625,41.6628696244,-79.9929617475,100.9392118378,-61.8128811075,201.8625943918
1.8066666667,-1.667054778,-15.2501853984,12.6902350047,-31.6486659375,33.6584978431,-33.7980767063,68.5048782417,65.0892525458,198.9645004011
1.8133333333,3.8593215742,-18.4133042946,-10.1417036648,-39.6891915625,23.6002636213,-77.7333734875,89.5905721652,-15.7956378175,231.7263984596
1.82,3.7617077633,-20.0214423132,-1.8480149007,-42.5528440625,22.5388508806,-65.2666354738,61.9763649076,16.6597201083,248.916147748
1.8266666667,3.8536029356,-25.6163279157,-12.7695431987,-47.70392375,13.6668545713,-70.37806961,28.9568541283,39.1498146521,143.2575093001
1.8333333333,7.548578749,-28.8920785036,-64.5177240894,-49.7192853125,7.6543705962,-111.1566745663,-3.523582884,-96.2456943644,58.8005058018
1.84,-1.642183051,-36.7081461623,-31.6993211128,-57.3873603125,5.9848408931,-92.9400914187,41.0433405381,-8.8903592308,231.2500933384
1.8466666667,5.3852247007,-17.8165537007,-6.7161034554,-35.52142625,5.6545396587,-57.8022260526,26.2097871409,27.9305839136,163.7925448021
1.8533333333,-2.9155835093,-25.7583911173,-12.3904371915,-33.8759240625,-8.4786502319,-54.2894961375,30.5473118786,16.4352785085,180.59313029
1.86,-1.157261347,-21.4890944419,-15.1395805354,-30.4822715625,-2.5894511256,-54.6139744538,29.2092358229,0.1984952362,190.9071129497
1.8666666667,1.5497907819,-14.4491738259,-17.760743122,-26.41758625,21.65283259,-56.3911777225,40.0694046968,-23.8848147865,146.8186982486
1.8733333333,-0.1265441804,-22.7007173563,-46.7453566686,-29.3914546875,1.9053204088,-77.1721175812,13.5872249884,-54.6482286111,80.7993408244
1.88,-0.4540476752,-18.7521923835,-49.2624966938,-20.240713125,2.4161863119,-70.6496428575,8.3307359466,-73.3600845677,54.2669495982
1.8866666667,-8.7346592372,-57.3588541698,-147.2594221799,-7.6217090625,-423.1609049038,-45.9527382112,-390.4383133647,-97.7399288571,-363.3561216237
1.8933333333,-13.9142580809,26.5425666819,39.4835403459,85.8981671875,-336.1210869006,163.72627111,-193.7392659651,75.112581178,-99.4745746653
1.9,8.7137133654,30.4383881768,13.6545637993,89.9771728125,-406.9726999006,118.8624550349,-310.7780938704,-17.2656331531,-86.094522519
1.9066666667,8.4705414385,8.7125399801,-52.7856289442,102.4949296875,-513.8081897756,67.8517141688,-474.9135865917,-93.9012923692,-188.0503519347
1.9133333333,-0.0110066772,-20.9646404057,-88.5502300518,92.8912871875,-524.8015153631,17.8546964913,-501.8319159989,-76.5894021147,-236.8957996961
1.92,5.1683296615,-29.5886693548,-72.6903561659,62.8755975,-546.3080350037,11.4708648037,-506.6018329702,43.6623904057,-363.0383495621
1.9266666667,10.2104950407,-33.9381249218,-59.5819190471,47.4501890625,-582.2377978694,1.6300375462,-524.5029757459,122.0683373901,-345.2705528737
1.9333333333,2.1453025912,29.6156749403,56.3426804788,121.7956896875,-596.8763099756,197.6166404075,-535.0698975124,268.9284801576,-469.1476678665
1.94,5.6029520285,32.4223633001,15.931040356,129.9127603125,-617.3122477225,159.1082106712,-586.19472576,155.2047011693,-507.9495734856
1.9466666667,-15.9372595356,17.7990680753,-25.6548622018,129.5159340625,-623.4353925725,155.2902065575,-623.122510573,87.7398444294,-605.2515596896
1.9533333333,-5.7150951053,7.1700182634,-81.2504899928,109.44548375,-659.44325886,67.7966661162,-669.3645105547,-3.5625175937,-629.8486113187
1.96,-8.8659314131,2.595095975,-108.418452168,107.32144625,-674.94136906,32.2941839187,-650.1742870439,-98.6852486192,-574.9333457514
1.9666666667,-15.9767857244,14.9114594231,-81.4671650931,126.469615,-685.0797703506,77.1521039725,-664.8635778417,-50.5085169696,-593.7735182421
1.9733333333,-13.3920326492,11.6866782097,-89.9198021508,110.682741875,-694.2518390537,47.3003885188,-634.0058443931,-97.6384106251,-519.2270152253
1.98,-15.145030177,10.5187186089,-89.7356211305,103.6781503125,-719.0415490319,47.5004041913,-685.1064954784,-64.6882106229,-531.490942483
1.9866666667,-10.3202849172,16.5386939604,-71.5831966951,95.369568125,-740.06742531,57.1831286338,-698.7581359776,-7.6851981602,-622.1214947442
1.9933333333,-13.3404672531,18.040178446,-59.3777228847,97.62077,-745.3104186256,72.6572878962,-714.4435265097,-12.4647849858,-550.1358135879
2,-17.2575292084,17.8962644668,-42.4105045352,92.89163375,-758.7550469194,91.22496587,-737.00609521,103.0112447121,-703.4853616288
2.0066666667,-14.3360004561,15.3860786806,-34.8355673281,78.0813709375,-754.008452285,81.4310313363,-718.3559456777,69.6447524942,-578.1931789163
2.0133333333,-19.4645556174,14.8514947174,-24.0323720269,82.2881971875,-751.8417108694,92.0651010712,-726.4495584356,134.8214313472,-669.012313301
2.02,-22.2041868402,11.9580871266,-25.4943160142,77.1121878125,-728.9956466288,84.6051969988,-685.1917503808,71.1595123587,-547.1975737072
2.0266666667,-27.6546839765,6.0652410146,-22.3218002736,68.59,-709.3995336631,84.040881895,-676.1519650628,120.8673811812,-597.9614950622
2.0333333333,-23.2005511583,9.6688258774,-33.5861858116,69.0390140625,-682.8720528381,62.71593732,-641.9627871178,27.9891426597,-517.1370961984
2.04,-28.2492901841,12.4084277696,-27.9906217196,72.8802628125,-655.5530586006,76.0705636425,-615.7601260935,27.7986620267,-542.9289923649
2.0466666667,-23.3972946458,-6.162323581,-73.0252384791,47.911399375,-645.0279970444,-0.9909994099,-627.1624048163,-41.136310292,-541.0458457523
2.0533333333,-25.9984872681,12.2532199461,-20.4340484151,59.657305,-619.9061550444,67.5677585199,-569.7201568244,-3.6186197361,-433.2272571224
2.06,-30.9490625144,-0.2829134277,-36.1329725686,45.675624375,-618.7207744225,43.3116612113,-592.3326091367,43.4087163293,-537.1453857011
2.0666666667,-23.3863173024,6.4150240557,-31.3269455849,43.9430046875,-606.7762978225,37.4356927363,-574.0013119668,-2.4160855938,-487.97091891
2.0733333333,-31.1447682189,4.1738486057,-13.3753707053,41.6334834375,-587.8770306287,61.00383336,-555.5441004431,56.7334081681,-459.6005923217
2.08,-36.0640807095,-20.3667694277,-62.9220131956,15.6541128125,-583.899848885,-1.953176125,-560.8476157542,-23.111191849,-463.6277144711
2.0866666667,-28.1391786401,1.6108997611,-18.2014102345,35.667643125,-552.4767277037,38.3845294312,-506.9112319146,36.6517404952,-426.6224776068
2.0933333333,-32.9457876407,-6.0954625472,-37.2397280973,28.5945915625,-558.7915063038,23.8503405963,-536.0710675687,-32.0344697879,-444.8955696589
2.1,-32.2073597639,-5.3995311686,-15.8778370719,27.42278875,-531.1412900631,31.0289791862,-485.4399577323,71.5151665804,-379.7663189517
2.1066666667,-34.6479218001,-7.6656428284,-30.8072883621,24.106009375,-531.2011302194,22.7277434462,-503.2240178814,-4.9708403519,-402.1503182544
2.1133333333,-43.196285659,-16.3577094407,-30.3745291601,23.3678121875,-521.91531911,24.6901079263,-483.525605908,35.8183057244,-395.1666001786
2.12,-44.2917887001,-16.3343427612,-28.2514758934,23.9281971875,-521.8702039162,25.5629931538,-486.5173632609,27.6863697597,-382.7789088453
2.1266666667,-41.8603179952,-18.8571918694,-42.6178152518,21.87231,-525.0025760069,1.82876307,-489.1580061379,-16.71823326,-392.2309272475
2.1333333333,-49.600587026,-10.6848020476,-7.8055071451,25.0967509375,-525.515723935,55.9355482637,-489.1040516631,63.3543467956,-387.1665614859
2.14,-46.2634892252,-18.3918182803,-29.1595081488,20.562356875,-523.1727948631,15.5693495088,-497.7198370368,22.7443266469,-404.1335846838
2.1466666667,-53.8423040425,-26.8163723893,-42.9678835171,16.1273803125,-531.3116238819,7.2156822825,-495.5102521164,1.7001109425,-396.3549297487
2.1533333333,-48.4762324211,-19.7744421858,-26.940089893,17.945530625,-533.8079636944,12.6959932213,-504.2836176429,27.9975610932,-417.0618138327
2.16,-51.2328888573,-9.7874696384,-5.2879693224,25.9139153125,-539.5955722412,48.0252498175,-500.0404508525,42.9736492855,-399.7455593676
2.1666666667,-56.0392452102,-27.6565185327,-32.9180904295,13.6029578125,-537.3667791881,6.8787613749,-501.8867307288,24.2303227149,-411.9731860727
2.1733333333,-56.7567940865,-17.3525208422,-7.1055206723,21.7951925,-544.2589626944,42.6876206451,-527.7129454319,7.4992223752,-464.2121226203
2.18,-61.6199234661,-30.8493740185,-50.6335689661,18.08798125,-537.0068485037,-14.8092752863,-484.3436718634,72.2112903915,-315.2023773455
2.1866666667,-62.9092279976,-27.7149641147,-28.8596956549,16.0757465625,-546.5203708256,21.27631005,-524.9302733985,-87.0987487858,-501.8758690546
2.1933333333,-70.7466460927,-23.8916547119,6.4673420472,22.071680625,-553.9717265475,50.3778268537,-509.0777331129,217.6653423154,-348.6252388539
2.2,-70.1759060018,-33.6529137718,-47.9256076217,17.4133896875,-562.64990391,4.7268132875,-531.7004713111,-141.8903292383,-489.8377319779
2.2066666667,-73.8679181995,-32.7209555277,-15.7184613193,11.3421878125,-580.5819864412,20.0774242713,-549.8311858278,119.6938505072,-420.7203930888
2.2133333333,-74.1567964128,-30.3627833666,-19.8597409313,16.6330046875,-584.6770306288,19.8225281537,-547.5148447508,41.4445146858,-439.7303755136
2.22,-81.6252534019,-40.2171232004,-35.9604211919,7.742356875,-600.5873818163,5.3620690725,-563.4743331009,9.7792605405,-465.3563168967
2.2266666667,-76.6404525496,-31.7636527401,-17.881107791,10.0377653125,-619.03748571,8.6268501063,-597.3455069898,43.2565896484,-494.1782574517
2.2333333333,-89.6235516061,-31.0326193752,-7.6063521409,17.7215584375,-617.6737005756,46.9255597975,-565.7846305312,61.6163905852,-459.8790063466
2.24,-90.1857990018,-53.7451667675,-59.9746502762,-4.994948125,-635.6601232288,-35.0804799775,-603.9442021987,-37.0570903072,-499.9766030167
2.2466666667,-97.9908810401,-39.3731209559,-11.7464718771,2.073699375,-648.8795348912,34.9639596375,-615.6420642461,64.7125369033,-492.3536317079
2.2533333333,-103.2761234864,-66.5577604739,-101.514054137,-12.9787228125,-660.7107012631,-64.7177219213,-622.0679328396,-187.1776088572,-493.6275305742
2.26,-99.8336687979,-33.1831617386,34.7357459489,8.6247321875,-649.2147360037,68.4576426613,-612.9766723781,209.5142370853,-523.8106888505
2.2666666667,-104.0477921366,-49.9941031481,-42.4098761543,-4.9485821875,-671.038094335,-10.0854018475,-624.8015237414,-12.7461323996,-503.4210527912
2.2733333333,-103.2282137052,-61.1079313794,-65.5553855522,-23.7459809375,-691.22916726,-58.2632635287,-663.6250418229,-51.3084358047,-562.6147831023
2.28,-107.2742965811,-38.1574978419,-1.1608479008,-7.9051740625,-691.7769093662,35.187208055,-640.4434445149,47.169964331,-520.6227203269
2.2866666667,-112.5893524899,-70.9315425281,-77.9731952425,-40.6496334375,-718.3206945006,-78.6129695325,-696.2824546453,-66.3627198825,-596.1556342183
2.2933333333,-111.023209319,-49.1394686344,-19.8569856548,-25.7152678125,-703.5199466381,-0.9274699163,-652.0618237358,22.5006886898,-542.4567425168
2.3,-117.4820733915,-52.5217607852,-19.5854360982,-33.262695,-724.41101111,-2.5443890549,-681.3410628466,24.2759642849,-579.3060441118
2.3066666667,-107.7432338313,-57.025764505,-36.9122689588,-49.788075,-726.0227192475,-54.3006715688,-695.8485592901,-11.7881626866,-587.1027709452
2.3133333333,-110.8917260353,-59.0172599711,-43.9650660362,-53.4082909375,-734.7226866631,-65.878760215,-706.4305865336,-25.319189683,-600.4518159308
2.32,-118.5207974986,-45.9410329495,-1.1544587861,-37.59586875,-731.3613272569,5.2796288813,-687.2182905257,1.9868564632,-562.7737184843
2.3266666667,-121.7026594044,-58.053693025,-20.8982849611,-58.67355875,-736.2507140225,-34.8636844513,-694.9328503679,60.5556997308,-632.7855913727
2.3333333333,-121.5004505393,-61.5942428148,-30.841363068,-69.49201875,-748.9373593756,-59.4749094675,-721.1546423906,3.6345892125,-616.9479562105
2.34,-121.6335188577,-57.341379633,-25.5527945235,-70.2089671875,-746.2604676537,-50.8712665425,-710.1842433872,-27.7106013105,-605.9508078698
2.3466666667,-123.7127553328,-57.6772712402,-27.8330286126,-74.0521878125,-751.7679387975,-60.1560334175,-716.6536477562,-24.0373263335,-622.6256762564
2.3533333333,-122.4011975372,-51.1259507912,-12.7448938808,-71.510385,-748.3438184569,-51.395320605,-714.8545052776,11.7141780751,-614.7357333238
2.36,-124.9204236374,-67.8424914417,-54.2142697049,-107.2664596875,-755.5974277662,-111.9873897412,-731.0660113447,-70.1826730612,-630.5050468045
2.3666666667,-128.5655892846,-40.1051728598,7.4832301329,-63.871211875,-742.110148285,-12.33199525,-681.8854689384,21.9805397599,-586.1931205248
2.3733333333,-125.6877874854,-58.0921320858,-40.636846279,-101.1762721875,-748.2816572319,-101.9380886625,-718.5336014404,-62.8911576526,-608.782227385
2.38,-117.7996063382,-43.6386409314,-23.2136331469,-94.0451925,-732.5717857194,-85.5423878025,-686.2034597438,-34.5624116744,-565.9403062496
2.3866666667,-113.9836899458,-37.8552535378,0.9117654222,-96.6833896875,-710.7844904006,-71.8722708787,-685.4069135372,0.9261692153,-623.246634953
2.3933333333,-110.2554719631,-34.740090817,-17.2181330776,-100.9529578125,-695.3453440069,-87.4011755588,-650.1690742474,-48.5010108249,-535.8286501491
2.4,-105.7379881928,-24.635575416,18.4626698064,-98.51154,-675.0393164975,-65.8303905863,-665.2369841817,14.3134649017,-654.3502142776
2.4066666667,-106.8885090071,-30.7084748259,-7.8647302823,-105.59355875,-658.3725235975,-84.54876731,-609.0078956894,-12.1172429059,-504.8440557931
2.4133333333,-97.6178685405,-24.1476566888,-8.4644493945,-115.6833896875,-640.80101111,-95.3599918075,-596.9003952642,-61.0711287774,-445.3253669448
2.42,-104.1818552953,-29.2130534366,-5.5703342653,-115.0297371875,-615.4496778287,-90.4588237775,-590.7165199668,-25.9337406936,-527.7364807152
2.4266666667,-96.6907598762,-22.6772639363,-7.7177847178,-124.06154,-600.1360785037,-99.8349987313,-571.039577913,-39.2394643274,-524.8604897466
2.4333333333,-95.6539284294,-28.7732852514,-42.6785318813,-125.5265165625,-566.142510535,-120.09274395,-510.9397253916,-131.6115294179,-357.7313304523
2.44,-93.3741519437,-21.1396080763,36.1320745954,-131.7065165625,-536.418452285,-58.0660711613,-521.5720398046,96.4149031208,-489.6588703852
2.4466666667,-82.3409885163,-23.7651588543,-36.0226768114,-134.8777184375,-487.7611712569,-113.9285427387,-437.101610814,-89.6955368127,-323.1051405852
2.4533333333,-67.8832402542,-12.9011793828,-21.308310591,-115.5556059375,-429.3792261288,-90.3029445188,-369.3837602575,-79.6623895089,-220.4268529261
2.46,-62.285513545,-8.7255025737,48.9193057912,-112.7493053125,-373.4877786506,-28.6105624675,-343.8371731789,150.3969502926,-270.8294464795
2.4666666667,-37.0307372805,5.6131060052,-4.5696789869,-90.1447421875,-300.02166661,-62.48769469,-257.3993477148,-88.867749202,-147.1738238999
2.4733333333,-31.9251233892,2.8096990379,35.0939779923,-96.0273334375,-250.4150329319,-26.0809205762,-219.9527819688,78.5421294296,-126.5821813536
2.48,-15.8169305465,11.7089796189,24.9044784935,-60.342554375,-171.6762260506,-11.536548695,-132.0807283887,42.2509242611,-0.5731476747
2.4866666667,-11.4537861846,8.2942248022,34.2486033912,-39.5620471875,-123.9649328819,-3.8592848775,-81.4914014084,201.2063434665,-81.2660178566
2.4933333333,-2.9924721821,15.411664773,21.4367223884,-2.4029109375,-78.5213197288,24.2039181337,-32.6800930175,-68.6020794564,144.1396816531
2.5,3.0201782503,-10.4230808399,-5.470519318,5.1510796875,35.22977594,17.9254981913,85.027628666,30.2988421375,190.2836937194
2.5066666667,5.8382092031,-12.0689033627,-18.2035281555,12.968600625,36.3751336588,1.57244805,91.0798618475,-11.2885386842,142.3025020727
2.5133333333,3.3835231973,5.4104928718,63.8150525657,18.543886875,21.7460673462,82.4315266687,40.4120566123,173.6325640148,72.4741227859
2.52,2.5098173501,-1.4277710257,-12.1595545068,15.6956428125,14.8799811275,9.5016084525,59.0890549093,16.9180397864,212.3310640603
2.5266666667,18.2266959832,25.6584136673,73.4180074394,32.80450625,37.0128945213,116.1518927975,60.7144129506,75.3508680696,88.4975320194
2.5333333333,26.5923762727,7.2430992256,-14.4162216598,2.516873125,34.2048985181,-30.7900541075,71.366936697,-78.0606309694,217.4320749516
2.54,23.5152072002,20.9023250662,42.3150958864,21.29874125,29.7350511369,51.5762819487,64.4086702156,55.8964182985,195.1336552708
2.5466666667,22.6094375998,17.1372826044,36.2329272912,24.034750625,32.3582785244,47.5002527825,76.0228867356,42.3515971326,228.8556073525
2.5533333333,25.8644877561,22.976601609,39.1503564332,24.692825625,29.3243124931,60.115736985,87.9834900781,-37.791572295,281.7334648447
2.56,19.1787466861,10.6437320066,38.5163543677,14.95076,33.4120773431,39.8590492775,82.7505080929,178.1057796754,329.1303959935
2.5666666667,23.9119949516,18.9877285054,12.364439906,21.2501121875,26.6491356712,31.1482848163,79.76804181,-161.6907658577,266.9949657678
2.5733333333,15.6398178502,6.7789935145,20.4042718272,11.438600625,27.4179743713,19.66932801,73.3918193383,53.468181054,324.3356649828
2.58,23.9717291405,20.3967035728,22.6158731237,18.0984315625,26.727039615,19.894141825,49.1306715274,-28.938785717,233.71248844
2.5866666667,24.8231849427,18.1250612842,23.2038744679,9.2719434375,26.3278666338,12.7102233038,43.2030430289,-8.5945586963,171.2109582197
2.5933333333,19.9318833343,13.8679126515,15.8606426404,9.13932375,25.9848906869,10.5020424038,38.6414694835,-23.3465217983,157.4196796723
2.6,26.0480286484,23.9617331308,34.0838191992,18.1679996875,23.7141481994,25.9260899125,39.2580114363,6.8417396364,185.5641304472
2.6066666667,20.2324962286,17.9240695338,28.1533895233,9.28692,16.48365669,17.4694508325,26.2953173707,17.1522463007,107.2182440228
2.6133333333,0.9422812122,6.3676740586,1.5758219858,10.4839621875,-5.3364916225,6.9663912187,6.258907919,-36.3272930033,113.7872463326
2.62,22.5563516142,17.4804136003,33.2968216471,5.9030984375,22.0887984712,17.1227894413,33.3549844646,35.4993475152,135.5116771766
2.6266666667,11.6294451001,7.8511234511,7.4192665347,6.1663190625,15.5866145025,2.007423,32.8751929399,-25.6674888181,131.8894303069
2.6333333333,19.1921436623,12.1566654278,17.3015819717,6.395333125,29.6306819712,6.5958929725,33.6457743774,-0.6524673032,120.7058985641
2.64,6.2135027174,-4.8339953552,-4.3869037544,-2.5236809375,26.090529815,-6.9072351238,48.5018576285,-44.3918154539,133.8523914197
2.6466666667,12.2337292063,12.4995768451,27.8791416738,7.8908353125,21.7157807212,26.3959793813,18.3835419079,70.7856762772,126.5183564491
2.6533333333,26.3073095649,13.9444424654,32.8884985268,11.53413125,40.3126292525,6.0125165337,59.936019713,122.2466727298,136.4445955345
2.66,0.3452682592,7.6417821252,13.2768988093,15.4532390625,0.6811814712,36.8836029225,12.4940096536,-88.8690564316,71.9660981891
2.6666666667,24.7467091081,8.0808163717,-0.7357158773,-5.296535,27.73857869,-43.2839693712,40.3102693651,-60.171559903,157.2141321775
2.6733333333,18.7990964608,16.9043809384,30.9637717042,14.945041875,26.3344359088,31.0543508662,52.7046440919,-3.1611290259,142.7093258709
2.68,13.8875006372,7.7106692885,15.2728823609,4.451680625,23.772298815,6.2310662488,35.925845529,-6.0688945591,125.9217686754
2.6866666667,15.5295866204,6.9723347054,8.6733554741,1.019661875,22.8685072213,-4.9022951726,46.7898641191,-39.3615964586,157.8346751617
2.6933333333,0.5595810356,6.4517618895,22.6512414802,13.453408125,2.0434905462,32.4793859063,16.374433124,25.6216133003,93.2584465484
2.7,14.6460163913,3.1330188869,1.5191086454,-3.1269953125,22.4417988525,-21.73552876,46.7181000386,-31.010210524,134.1257288918
2.7066666667,12.5561392943,3.7488428247,3.7306811522,1.6703096875,28.9732775275,-4.5641475875,46.7935727699,-71.6268669276,175.1352628787
2.7133333333,7.692748016,-4.7905629317,9.7930810492,0.1110796875,33.6924986119,-1.1948914124,73.7364574211,-15.3010242944,182.6933998277
2.72,16.6823870987,11.553348513,17.2997866748,11.2305725,32.9561457369,10.4617597512,42.830695145,-10.8927334068,92.911399055
2.7266666667,14.5702484746,3.8951154295,3.1234393532,-0.6249765625,31.535485165,-8.1498576625,47.2716681936,-53.2733859384,114.0517703946
2.7333333333,11.7085324228,-2.9734458076,-3.2192915135,-2.2830046875,36.2943610587,-22.3661971688,60.5586908431,-80.594533573,177.0089985187
2.74,15.0292080528,18.1546225511,38.5831163154,18.326290625,38.6873247088,50.8807297475,53.3217500945,17.4464251957,99.3997589063
2.7466666667,10.8592103957,-11.8614044555,-23.3388873307,-10.3703096875,34.6358037681,-56.2192236625,63.8249661179,-92.7285184165,153.7922461685
2.7533333333,-0.1620922841,4.5008694993,7.1793918634,11.8171828125,8.2714488931,18.7263918225,29.0859938278,-40.5766524735,95.2932341128
2.76,11.5017196287,7.5000421067,16.7114690376,7.1017275,32.8097364494,14.8201721737,62.8393067492,-29.1813042504,127.6671807596
2.7666666667,14.2131056749,-5.2952855631,-19.2837235271,-7.397736875,29.0545731525,-55.5546438237,54.2630889476,-102.2405227795,143.2931953101
2.7733333333,12.6575349814,18.2917217213,48.9607051734,15.1616521875,41.5968073775,57.8536919737,63.2325593776,43.9677085055,109.0321857046
2.78,13.3161148517,-9.3717242379,-33.3607092101,-1.95163375,44.6307489744,-69.5022115338,81.1432220037,-161.2879467856,182.3608472691
2.7866666667,7.6056093756,2.6316051447,12.3759046308,-2.1877653125,40.3879606869,10.1225670325,59.9463635379,-10.4507507855,94.5936466473
2.7933333333,5.1828616926,4.9255746996,30.9175208763,6.7727603125,45.1553721962,33.3399438325,72.231970819,29.7039277043,103.8653374348
2.8,11.3082769988,-4.7443334808,-18.5091791532,-2.6386290625,46.3006458463,-48.414470845,90.9570147297,-146.5940078948,206.3169910065
2.8066666667,9.0387533294,1.5442746796,16.0567946782,0.45201875,48.9904446619,0.1877150749,81.5878029008,-23.8014694573,138.8773348801
2.8133333333,9.1330393593,-4.04431072,-12.0769192663,-4.726009375,44.4997089369,-38.7053562512,75.4289223046,-94.128563025,173.8639063211
2.82,1.3166898456,5.9212887988,42.6429003226,5.121004375,51.5947500462,47.4196981037,85.088641898,66.7241977937,80.101218734
2.8266666667,9.304188991,-7.146305531,-20.2377997212,-13.574178125,46.2529194181,-52.8668062325,92.0627406339,-138.9902038687,192.7605292185
2.8333333333,12.6468318881,9.0513076015,13.5266242263,2.5925728125,50.0645826744,-10.6381582125,89.5302061745,-68.1350304344,167.5289331372
2.84,1.3059576982,-3.5963228963,-12.6231739606,1.0302159375,22.9083933275,-27.0986913562,67.3001475905,-79.2030865341,111.3755068943
2.8466666667,9.5109652917,3.8824326844,9.2507214,-4.067258125,43.2278815306,-23.5891939788,100.8174765584,-97.5096859249,245.1881744846
2.8533333333,12.2976425286,3.3177632032,19.0277056233,-11.275765,53.1211591744,-17.5996191063,81.4945482312,40.3848959037,69.0710459898
2.86,6.9019954572,14.1999672409,32.3379766885,1.9074271875,51.3495360306,6.5086432238,120.1669066451,-61.6287840081,280.3613763221
2.8666666667,-0.5427527057,-21.6858216396,-31.6258107024,-22.664750625,25.3803055681,-80.2386420413,99.7025931255,-77.3601292733,165.5864741638
2.8733333333,7.537425315,-2.539382744,13.33498413,-23.9489103125,50.5080658087,-37.6934787762,110.6680218495,-39.9139105003,273.6224076747
2.88,2.3134658606,-11.3234825999,-3.8935360716,-25.539943125,44.7608212088,-55.8338084625,106.0009397274,-14.2255692165,188.8576304256
2.8866666667,1.4211383392,-13.7762999725,-9.2368820902,-28.1794359375,21.5854748619,-52.975784835,75.5564183125,-39.968031825,200.6898449719
2.8933333333,8.471591907,-6.7577895954,10.8349536495,-30.77643125,45.5135879806,-61.2071126075,112.5447243967,13.5182266585,259.8206844284
2.9,1.7288852791,-22.2951137027,-17.6378289961,-45.3764028125,27.5452878244,-74.0362495475,72.394676127,-38.2584189755,203.4806588772
2.9066666667,1.3357432511,-19.2689212874,-1.9950600394,-36.5671728125,29.699476715,-63.2719497162,71.0781146675,36.6640482496,207.2374761713
2.9133333333,4.109058542,-16.2388489929,-4.8988023992,-35.5559240625,18.4603109587,-54.1341403238,37.4440709785,19.5188582483,162.4896745921
2.92,4.2108147971,-23.7779741409,-26.3307889787,-43.0500553125,8.9723513838,-75.2764469324,19.4891587221,-2.7218282324,100.1829406077
2.9266666667,-1.6741586575,-35.5109891446,-39.7949254734,-47.5717359375,-9.9451929194,-87.4357264013,12.0442362661,-25.9359223615,183.8183283996
2.9333333333,1.2175061541,-27.7239358211,-27.2556105957,-43.36104125,2.2734911681,-76.9579251612,25.8771239541,-32.1989453771,172.8380099319
2.94,2.1718805038,-22.8365155366,-6.9127484451,-44.46469375,16.8138025463,-68.8855759563,54.5434250936,34.9065875517,183.9659778091
2.9466666667,1.1652264235,-23.3712407375,-5.7899315422,-44.023783125,10.20708834,-60.9353315062,42.749588019,23.7488097458,226.8802169928
2.9533333333,2.1991436523,-16.7809096376,-3.9662158309,-36.0070790625,27.1052988931,-59.898576555,60.6217576145,0.5028476129,227.9841028355
2.96,3.9017993806,-9.4559267009,-6.223939904,-25.8010228125,27.5059877431,-46.2138175238,41.6531382095,-10.4856981097,140.3518280831
2.9666666667,-0.0928564993,-18.2212849235,-29.4805017341,-25.0281871875,4.95839564,-63.2721515962,25.3694188256,-23.7139058182,124.2847073163
2.9733333333,0.1100687295,-13.6379823919,-28.5871391786,-20.967924375,9.1016817369,-57.4402767976,34.0605471637,-39.4803455716,111.4589527134
2.98,-0.0453105846,-14.094146754,-41.1120371544,-15.51384,9.85495139,-66.8361721387,36.2185675285,-108.6905999766,111.4230539719
2.9866666667,2.4758126889,-3.2920845039,-21.5524171278,-4.4238684375,7.1782079806,-36.9526545563,14.4707514668,-51.0848266163,90.4220888792
2.9933333333,-6.7904185137,-40.7951968517,-111.5685647788,-21.4639253125,-318.3298676412,-47.5328186687,-255.2416367697,-90.9259252068,-189.8664665817
3,-10.3742550017,32.6575559074,50.7962714263,61.3634065625,-253.226917835,154.1860798587,-129.7482745291,84.1193862567,-85.7067661567
3.0066666667,3.8389419862,22.1317702724,10.6396494657,50.7690225,-283.7208657319,85.0554280576,-203.822307013,-13.6851349183,-43.253820052
3.0133333333,11.2311324442,0.1030481394,-64.1440130792,51.761493125,-382.8706416287,12.1485911525,-384.279674751,-87.6903516958,-194.086888419
3.02,-1.5102682198,-20.201889479,-39.2382250422,-20.725520625,-14.0575725381,-62.0144188425,4.7532007263,-132.3225666403,236.8515463731
3.0266666667,-7.3308331447,-9.7601321315,-3.6718556865,70.9678975,-399.3950991694,63.9941672987,-325.7583142876,89.4746865706,-91.5846461542
3.0333333333,-10.1161721296,-50.9830338768,-102.637282768,17.5109590625,-423.6848326725,-42.2527660374,-407.4155724523,30.6687683526,-349.5553090351
3.04,-2.4644231005,-22.0436691935,-16.8252825521,34.8006578125,-478.7345205287,44.1826609112,-420.4106510237,131.0659291052,-198.8091714683
3.0466666667,-3.960023881,23.9297238137,29.748474054,95.228309375,-513.5598754881,148.4660657937,-454.4975259678,212.1129184198,-410.7199601724
3.0533333333,-10.8855660631,28.2900064733,1.3487436287,116.738309375,-540.8646464006,153.5239393888,-528.9200706099,94.2469342708,-463.8178383513
3.06,-12.8389296963,4.8867261351,-66.4117243852,89.7629109375,-587.6285540256,71.9239676025,-583.3096834133,22.1630984445,-574.9382981039
3.0666666667,-7.0343370352,3.683358175,-98.4354711631,86.805005,-618.1099558569,21.8912450562,-605.6377988363,-93.1758825257,-504.2554165901
3.0733333333,-11.9693185387,5.9666401171,-104.292414141,89.8920940625,-658.2530175631,25.0910518625,-637.1828132384,-101.2273678136,-526.394606459
3.08,-5.9365155337,23.8258669751,-72.5589541226,98.72,-661.088148435,46.6296324763,-609.0914057376,-70.3667614755,-496.0671437274
3.0866666667,-13.6575179662,18.7998708474,-74.2083927027,96.51,-671.414529285,48.5948531774,-621.8082034397,-85.3128032867,-473.4831012545
3.0933333333,-15.2580081864,11.4270953118,-81.9882215327,81.8617090625,-697.6990138756,31.8383517501,-655.8145608782,-37.5205496497,-517.1952072128
3.1,-18.8070689163,15.3048187891,-66.9692642802,83.1485821875,-710.05419116,56.6785691362,-676.5721230109,-15.1682573619,-580.4233788229
3.1066666667,-17.1446066694,18.8582940839,-51.5308886759,76.64077,-733.6003184162,68.81116231,-720.7837192917,66.150431758,-656.6953579365
3.1133333333,-18.3848813206,20.1458461865,-41.0990977382,79.1457934375,-725.36351676,72.3578531725,-687.7790202512,41.0232532466,-620.898548855
3.12,-31.3580574061,11.4907700476,-37.2237890764,73.6030515625,-742.4403771256,87.4113638537,-727.4376134742,99.3941201296,-640.6873555056
3.1266666667,-35.6182857046,2.5773835486,-41.3272941068,62.5833896875,-732.2742288163,72.280225105,-692.9093361108,88.1191469232,-596.4019614258
3.1333333333,-31.4290566517,6.9678951969,-37.1679092987,58.753990625,-728.6355413475,67.7535307587,-698.1256768547,71.9032288527,-632.0372699093
3.14,-32.7159773854,14.6830131277,-19.3426214554,67.989276875,-717.0887679694,84.8510739762,-671.0793352899,73.62582106,-539.4081811941
3.1466666667,-33.7637793292,-1.9944794703,-67.2266148934,52.6284415625,-715.4871294506,20.09887808,-689.0175975012,-6.0136830577,-604.6894565262
3.1533333333,-34.8806475186,16.8443677087,-24.5886725749,65.646535,-697.899802935,75.4646391625,-642.5805298337,28.8521433442,-525.7562048741
3.16,-39.255357281,-10.0381303232,-81.8720421379,39.037455625,-688.7966384038,2.7493384113,-662.0271761986,-105.7014707607,-538.9461102052
3.1666666667,-34.4079200764,12.072776335,-24.2338307351,52.5146853125,-665.8362391131,52.9880998362,-628.09190107,109.7984846383,-539.3548538201
3.1733333333,-43.2237710321,-1.3193095882,-45.6431857276,44.7457934375,-658.3860041162,40.4423077176,-630.3489103913,-10.3909021344,-568.2828462874
3.18,-41.4003136815,0.8664720011,-36.7533253629,44.810385,-636.6538365912,37.966474545,-604.6882729665,15.563312673,-505.3376567637
3.1866666667,-45.9757273497,2.1084513026,-24.3111140801,46.9158871875,-617.812044385,57.3426671662,-578.2211953584,25.2268919002,-471.8281651056
3.1933333333,-47.5316994308,-13.2753487085,-45.6827758608,32.8569015625,-592.4876530819,17.2210070951,-568.3986965595,18.319386967,-475.3396192011
3.2,-48.3740112905,-6.3724458336,-28.4497730841,38.9790140625,-581.9862386506,39.3156125661,-546.5216441826,24.5513986401,-454.9314131832
3.2066666667,-45.9446765356,-3.2963156488,-21.7218152706,38.6442065625,-564.8916103569,39.2373351038,-528.3248229223,35.1373481679,-436.8832519572
3.2133333333,-56.606959379,-14.4940218695,-33.2870493261,35.909615,-553.132300435,35.4128795638,-518.976615502,21.8441006278,-417.4320801928
3.22,-51.0181842619,-10.6016089818,-27.8539938988,36.089568125,-541.1419344944,28.732597595,-499.2632028942,17.213812127,-386.7220859958
3.2266666667,-60.1135892289,-15.0140729361,-24.7580519471,39.165239375,-536.8679501694,41.7538606625,-503.7390694664,29.9912538003,-398.887795271
3.2333333333,-51.9885411353,-8.0261166686,-17.5517630202,35.9648075,-532.5774933975,36.117170795,-494.5669393646,33.6765896572,-389.9500177712
3.24,-60.1456689193,-17.2965105202,-27.8935578022,33.7433896875,-532.2016707569,29.6241391762,-498.3493442536,21.4975484422,-395.0869333559
3.2466666667,-59.2084599391,-17.5045387818,-26.2992215778,31.9537278125,-531.5290066506,23.7470987037,-502.6042023913,28.4814947037,-407.4217484269
3.2533333333,-62.9186414781,-7.8559029253,2.2406741393,44.6475678125,-515.7204398381,68.209463075,-470.448841962,60.1562554791,-380.8624440696
3.26,-70.2475772206,-39.0317091034,-63.1126954469,14.8098125,-535.0517915569,-17.3271822887,-512.2401913749,-26.8693574268,-398.2740212805
3.2666666667,-70.1484158157,-13.4854905786,-1.2648624199,39.63538,-529.2460536069,66.354926815,-485.9297354502,57.593927017,-404.9701172291
3.2733333333,-73.386506772,-33.554395768,-38.938372093,20.5137278125,-527.7555029256,10.9607046887,-491.8145865934,14.3528994226,-384.6860679221
3.28,-74.9640076552,-30.8873915527,-37.615703379,26.8193521875,-533.55496746,15.5755629075,-499.3953801609,-6.4370112944,-402.1338161931
3.2866666667,-75.5643746516,-32.0447381883,-30.0416576394,22.9263475,-536.5837182475,15.1363853613,-504.7118425019,34.7083784253,-403.1329828217
3.2933333333,-81.3236838528,-23.0857017624,-2.7124038591,33.7535303125,-538.4415820788,61.6671078475,-492.4987383781,66.0842993154,-391.1741157631
3.3,-77.4274543584,-36.2237743519,-36.818238152,19.3668546875,-552.6067038756,-3.8024718813,-527.0005976169,23.5055242469,-424.3136525529
3.3066666667,-81.6482185535,-26.5633704399,-6.7393318935,26.99846,-554.9274685006,43.62782534,-511.2977328272,58.929393212,-405.3412138856
3.3133333333,-89.2251817998,-39.6763557256,-30.7131462757,16.309183125,-577.2963446975,14.60209233,-541.4270546612,28.41469266,-439.5115794254
3.32,-85.3676181647,-34.6757280072,-18.2190251684,11.830431875,-573.3942829162,22.2486608525,-533.491407854,33.2798035325,-430.0116881798
3.3266666667,-99.5822734362,-45.9939449908,-53.032637128,8.4022815625,-599.690835285,6.82423315,-558.6070669501,-80.8354759881,-429.0876958363
3.3333333333,-90.68361384,-47.0599610085,0.3294898951,-8.266966875,-610.0991503537,8.4727841175,-599.4349937166,161.8056673697,-543.4490776758
3.34,-101.3181624595,-41.2683098653,-25.1966004185,2.6911265625,-626.4346234975,24.2497554412,-576.951929583,18.587417825,-463.3538587776
3.3466666667,-102.6138778105,-60.5682166311,-53.8415070267,-18.5139153125,-630.0897111788,-30.5918158962,-595.9775663893,-19.0967024081,-487.0071309542
3.3533333333,-99.1050646688,-40.0606467632,-13.9408036463,-3.408319375,-637.8543737475,12.9645159274,-606.1186377155,45.7880833953,-506.8807001375
3.36,-104.0228421348,-47.9506889842,-23.1111585805,-12.861201875,-646.9242909069,1.2673842813,-606.8188970405,18.9124781735,-497.0843300909
3.3666666667,-103.4634915644,-43.7041924209,-25.7068598045,-11.5385353125,-662.7986487006,-8.533247055,-636.4137716635,-0.0894517891,-524.7298171609
3.3733333333,-103.730613624,-48.6955419405,-25.6759777709,-29.6370890625,-663.3853437037,-15.12370785,-618.2428270783,21.873229692,-513.5724068101
3.38,-108.7310258231,-48.9969481033,-38.1791526178,-20.996394375,-683.4670183319,-24.6671060025,-649.0263596217,-94.9492146224,-559.7836788789
3.3866666667,-109.123329206,-37.855558217,3.1348352959,-20.5828640625,-693.1528472725,6.6652901025,-660.034701963,122.3881315304,-540.4899930617
3.3933333333,-111.2785295586,-58.9204908924,-51.2213403549,-44.5423284375,-697.5177972475,-61.4445484538,-651.7750936179,-29.4021563258,-533.5112755545
3.4,-116.8101518183,-50.7121836757,-25.256607824,-40.585145625,-701.8657019569,-25.093840815,-667.28558419,8.3641357171,-565.2358888276
3.4066666667,-111.9012324854,-40.729855144,-13.0443867802,-35.1717090625,-701.6025066913,-18.5182454462,-662.4994611913,4.4459423517,-556.9991013043
3.4133333333,-117.1822451851,-54.9275033626,-30.3897556575,-54.5662721875,-709.0406142756,-50.97640639,-674.9151454716,4.5675274821,-572.0383511279
3.42,-113.4567924853,-45.3403545843,-18.4942456068,-54.056779375,-713.9592252037,-42.3162546587,-672.1425583254,2.6605073413,-576.5037085866
3.4266666667,-112.4738433126,-41.9830094501,-10.4136185312,-56.76798125,-709.5460649788,-40.7239708138,-676.1606153701,4.0823529302,-590.4469534057
3.4333333333,-126.9478703316,-54.5615496252,-17.1830871964,-63.71355875,-718.4405939881,-42.6127971199,-685.7777972688,19.545087964,-605.0011634532
3.44,-113.9099056817,-43.2503219417,-9.7119417152,-73.2430046875,-712.9845947569,-54.16183408,-681.5147326746,-0.0571565919,-583.087086972
3.4466666667,-130.2176088803,-57.5148106463,-32.6976918885,-80.3837746875,-727.1746590006,-67.6575527362,-690.5518702815,-35.7122157262,-600.0015493635
3.4533333333,-110.5163529631,-32.2998655538,3.9368009638,-79.3469953125,-725.8566337944,-58.5828321863,-700.8053320441,-8.5047584964,-618.4601928336
3.46,-121.3303787262,-41.9838234555,-17.4451210782,-80.8457465625,-721.994117235,-68.872790085,-678.885067575,-34.3164336809,-572.8913836248
3.4666666667,-121.3586771865,-40.6676901811,-11.7334397121,-90.2848075,-722.1427767287,-73.4393350375,-685.8549929177,-15.9187908355,-615.9989536355
3.4733333333,-119.429259725,-34.6358541667,2.2321800404,-89.250723125,-712.7945846131,-65.3771049988,-683.6380715409,-4.4880380428,-594.3814243299
3.48,-122.1846926298,-38.4293655203,-7.0955803691,-102.116779375,-710.6997974006,-78.8681617038,-682.459873926,-25.4712764179,-600.3540584334
3.4866666667,-120.5767793407,-32.910252444,-2.1496082126,-101.4120940625,-695.1787493725,-68.4580899724,-651.4486093971,-15.5251754943,-554.6261606583
3.4933333333,-114.9604549533,-40.8850792963,-30.3399680833,-120.7911265625,-688.7699423319,-130.2726322213,-656.5161788705,-59.5005136153,-573.0108759203
3.5,-113.0897452993,-22.7021373936,4.9735742691,-107.3408453125,-664.2360197944,-67.8632046325,-619.7910161145,-26.3756924844,-496.5198641217
3.5066666667,-111.4150277985,-25.9893873475,-4.3421612987,-119.0276715625,-640.9322501788,-84.3665766775,-605.4228873324,-41.2196587316,-515.6170501854
3.5133333333,-102.6600986985,-31.0870793971,-36.9771618286,-134.1994459375,-620.8595172194,-139.7614835687,-583.3275316319,-106.0596856426,-505.7646058211
3.52,-102.3235137452,-22.7401462299,17.7113034813,-136.0241596875,-600.8078073912,-85.5522634913,-578.4869647182,27.6850200367,-496.623313581
3.5266666667,-92.1392275977,-12.1807660932,2.7399467344,-128.164281875,-574.7918047787,-94.6093756062,-533.4771671837,-39.1624968522,-432.35233608
3.5333333333,-93.252762811,-19.3832846139,-3.9345020324,-138.94154,-537.1947565944,-99.9691857576,-511.3798970743,-35.6145409297,-452.6089725865
3.54,-77.8705647835,-13.9423227665,-10.6541184489,-140.252648125,-490.5115132256,-105.3995443937,-442.4800641487,-58.5668991616,-323.5382805781
3.5466666667,-75.28791889,-11.0888484317,13.9619167377,-131.9724321875,-441.6363845069,-66.77804393,-392.3212746696,37.0875027159,-298.1242852326
3.5533333333,-63.8823373907,-12.5607787701,2.1976535431,-130.2840190625,-371.5552210538,-68.5916544987,-329.5551818404,2.5237078174,-219.9212208058
3.56,-40.6776250741,3.9062157573,22.2988050754,-104.666545,-305.8432315069,-48.071354545,-257.100339126,39.9315983029,-136.730425002
3.5666666667,-37.2125248869,6.077503265,34.6668803267,-84.7034934375,-249.0813736694,-18.01034787,-219.7597485366,72.67700751,-165.2173498363
3.5733333333,-14.7706804456,21.7936049459,52.2700638837,-47.1253146875,-180.1541688787,10.7602995926,-146.574456069,76.8240613765,-44.2646056464
3.58,-1.1345757925,-9.0455302833,16.9270644215,-0.848413125,25.5160516681,40.2236006062,68.7647702731,101.9672260401,121.8333514987
3.5866666667,6.3936411128,-10.7175091648,1.9847612441,15.150234375,42.0625316431,27.18693468,104.544861887,41.9771877842,197.366509286
3.5933333333,5.5501071326,-8.5383256106,8.7620013423,10.7263659375,30.2380767181,18.5956191787,77.690545274,98.5193252526,131.9957507348
3.6,0.459508002,14.0505871242,71.2825084714,29.6338584375,15.8677764087,116.4910423162,37.041696605,135.1871721203,122.4440720324
3.6066666667,0.3099118026,5.9104160522,21.7337694135,23.3313609375,13.9400605869,62.16068025,49.3265222244,37.390320378,137.231972817
3.6133333333,1.2205332212,4.4985392929,32.0957999945,18.4832859375,10.24279739,58.5540551587,45.9096541321,87.8883727748,176.8682816299
3.62,18.3008899796,10.2567108046,4.7239095152,11.5884784375,25.1393726619,13.592522185,70.2239134989,-27.821606825,245.3937511635
3.6266666667,21.9326561906,18.5114206249,45.8430692008,16.30951125,30.8770432994,45.4248931425,49.9024855634,128.6910827925,215.2820657396
3.6333333333,19.1236125641,11.9227623297,9.5124449371,16.91239375,32.96453304,33.1414167588,78.7852373482,-135.8055045013,197.825022916
3.64,6.0539733479,7.5941907588,34.6972580248,30.179266875,7.6690755744,45.2702293538,70.6502401366,160.2355674218,356.9415597568
3.6466666667,5.563310449,6.6888123675,-15.0055878936,24.361576875,3.0058334337,10.866542175,38.2412532946,-206.181842445,165.642455638
3.6533333333,18.3065652661,15.4094514992,39.6840589357,22.8301590625,19.0162341119,37.6163949512,71.308102957,90.3528319952,331.3164231832
3.66,23.9605598793,18.0031967055,26.0427834222,18.819943125,25.7468130713,26.4178964175,72.3112212791,-15.6306416565,287.1354129605
3.6666666667,1.1585769407,11.0140166773,20.10369052,16.9682625,-9.0785995131,32.7005500725,12.1485701,-18.2794260556,212.941669076
3.6733333333,26.4572362292,25.8277968296,44.1432094265,24.171483125,25.6570205556,44.3596197125,46.1872835669,31.0346621705,173.9028498047
3.68,26.0705506832,18.0805169451,14.5755776371,7.602065625,20.9351438181,-7.0395806063,46.4003451235,-52.7241348084,216.6300772819
3.6866666667,22.3985037467,13.8708428231,11.9254846337,-1.9489203125,19.1847373025,-14.7956336449,36.1774510966,-30.0238183787,159.522459667
3.6933333333,24.4763722504,23.383178013,34.8821523452,17.435811875,22.2705623994,32.0541371937,33.9615776821,1.5243845875,155.6410257397
3.7,14.6767718991,13.3015139993,21.698419481,10.2251640625,14.62627684,11.4596176975,31.9498366461,5.1628710176,152.8523703201
3.7066666667,21.2017602731,16.4772392848,28.2852849828,7.9803565625,19.6643484588,15.746220425,37.0766054688,12.671230223,136.102442106
3.7133333333,18.4944265149,14.5048720766,14.2380238469,4.1217275,18.9433646744,0.3794984075,23.4504505979,-15.1422188786,111.2623968694
3.72,21.1547614814,13.3987317132,16.0646559633,10.205765,27.5128021588,1.1502546762,48.6249219369,-20.9120306837,158.3329762689
3.7266666667,15.8302211695,15.4828441935,28.5621006669,10.8471359375,19.9378332838,21.2575912775,16.0846830215,24.3325814795,99.6425377673
3.7333333333,14.7085568759,3.1646664936,1.5063941368,2.383699375,31.43254134,-7.0084094525,48.7320028699,-29.0706948125,118.3948787953
3.74,14.4097130869,3.0997978102,12.4256023077,-1.5673334375,29.9670171744,-5.1253273212,44.5056713461,59.6412099588,166.7826001789
3.7466666667,13.8279192661,8.884754972,12.0516383098,4.19816875,25.1191808556,10.6899334262,33.8513164968,-64.6934868839,74.2788236826
3.7533333333,14.7241013402,8.6166498663,10.6028096178,6.1494928125,22.6001735556,0.227535765,38.5835582568,-31.5473629889,140.930573688
3.76,12.9124716943,6.8706472107,8.9574906708,4.14567125,21.1262302681,1.2608743737,35.3225334444,-44.0330921583,92.0735278788
3.7666666667,0.3476457338,4.814160016,17.8754751575,13.81701375,3.9384818619,27.4978383863,27.3989397924,-10.9146835598,155.0652683117
3.7733333333,17.3266359405,-1.0563881935,6.6688995854,-11.2063190625,28.6120253963,-48.8408302913,44.995208274,163.4944631108,142.9913137812
3.78,-1.2395846402,8.3622043212,15.8114439416,19.0892953125,4.7632606212,50.7622039426,27.50901032,-139.0752396676,106.6946503598
3.7866666667,9.829038504,-3.8071595031,-8.7312279605,-3.4866103125,28.7178707806,-28.7548190063,50.9144907264,-71.4140941642,170.283553536
3.7933333333,16.9542946473,3.6917226579,-1.0345567672,-0.13317375,30.7010880244,-25.84214769,52.9762994453,-58.788809454,113.6397987341
3.8,9.2329894983,3.1825061594,18.8897436798,4.444563125,39.9832567775,22.8696387275,53.1179920167,-10.6617209425,149.5827571377
3.8066666667,5.7786427607,-0.7155490665,0.0909615138,6.6391546875,35.8900433775,3.35401548,43.8773090734,-47.6756718059,107.8118025586
3.8133333333,12.6754375267,3.2040438877,8.5781958648,1.4746853125,34.1626778181,-2.948514425,61.1776314955,-43.8750006472,122.7340378699
3.82,10.301888862,3.0824443391,7.3470059433,3.39451625,34.23130519,1.9284082176,45.5557934646,-21.7198998023,97.5908560434
3.8266666667,14.4465997144,6.3428887555,7.1994168648,0.902450625,33.5152472494,-4.2740145863,54.2529109091,-68.0913054683,125.4383685881
3.8333333333,8.8456106358,1.8787203678,1.9149422256,7.1906946875,36.2945156712,-2.882384785,57.065139554,-74.509061869,127.1765995004
3.84,11.8556815497,11.2104005943,31.5682271318,11.8971828125,39.9560885588,29.905591445,63.9797465261,5.6962574989,128.9077530119
3.8466666667,20.5250471021,-1.1397164538,-19.6315495128,-2.8930046875,47.3417762525,-58.9914597063,77.0688743173,-125.3724260222,143.2690130083
3.8533333333,11.1001882841,5.8098124306,11.5443728693,-2.79163375,28.8087784869,4.3896525726,54.7969123869,-37.7322686395,99.510941711
3.86,7.9071413157,0.4207882798,5.1751912417,1.8458403125,37.27247279,-6.61654147,67.1984982384,-47.5430276919,119.334403452
3.8666666667,10.2997671152,5.4638007368,20.7966586583,7.8851171875,52.3985771431,10.193887525,93.568702817,-37.4436050271,167.1405327998
3.8733333333,9.4255149261,-2.6525740278,-5.0116310469,-4.2306478125,43.8047193119,-27.0144019613,68.7266988287,-75.7502743851,155.0373681288
3.88,15.0461103765,8.4960327982,10.0580943038,7.178413125,53.7722068994,-9.4424012137,77.6888218784,-49.1000693078,99.4557072302
3.8866666667,5.4896929256,-3.2844635509,5.5483083562,-1.2006009375,50.6196809619,-14.2711950301,97.4211851135,-51.488281986,153.4082847533
3.8933333333,10.0301719154,1.8551271511,0.1601209192,-5.6390140625,43.9107193087,-19.1262751249,74.1584956132,-72.523160411,129.710030821
3.9,12.5318132423,3.8813895156,2.0123560527,-5.812835625,47.6630841744,-24.9740746988,85.2042582014,-92.5741479847,169.3524921284
3.9066666667,1.2261345332,-3.4772158795,-4.0207220451,-3.8178590625,20.1104480431,-19.9497116025,65.7060200357,-68.7589671646,127.2943835832
3.9133333333,10.3189864742,-5.4439527503,-12.9716850199,-12.3307884375,61.2423296931,-56.3280219599,125.4824581694,-121.0732544579,210.038323592
3.92,9.7716492644,-0.8381199864,-9.1157130376,-13.920525625,39.3868909838,-41.2883938076,80.1457912339,-74.6256432417,97.3380664507
3.9266666667,0.6649284823,-14.7254373719,-24.0547628416,-17.9984784375,22.3866192556,-57.99695283,75.3569634081,-114.00485751,219.5662184307
3.9333333333,9.4408008988,9.9434464899,33.6663023647,-11.7199246875,46.3745662306,2.8657513538,98.2520691024,13.1891018319,135.7674493086
3.94,1.8509143125,-28.0229161636,-57.3919433171,-32.4821025,24.995489615,-113.2649660363,81.992632408,-161.6836339284,211.2014271442
3.9466666667,5.1279782549,3.0037888279,18.0734056305,-18.0348259375,40.8366400056,-14.6929391762,92.1207578062,-12.9601502401,164.8363722724
3.9533333333,8.6898152162,-10.7753423271,12.0109250734,-35.4307315625,45.6084157681,-56.5656971975,97.1057178035,24.3356616503,200.324572258
3.96,5.1538310466,-15.0747535334,-28.1061768926,-30.8507315625,47.3892195806,-102.4490423926,126.2277728637,-143.0346521022,356.3852528703
3.9666666667,8.9115919115,-7.1556724288,7.6125281393,-35.1127503125,38.8697977744,-49.5476177862,71.9347714034,34.5257863815,124.0851165248
3.9733333333,1.7213627931,-14.0622868261,13.4815171352,-32.8810696875,29.6668172181,-58.7198633737,111.5920487433,-4.8590072796,370.2759216885
3.98,2.0358401043,-24.4077164418,-5.1762081325,-48.747529375,22.3386552306,-77.60016232,80.5967986306,28.4124329119,234.3927321136
3.9866666667,3.2960512587,-31.6284081196,-29.0203463635,-52.746759375,8.9911241494,-77.9216844188,-6.7395689637,42.0029334592,66.4963556229
3.9933333333,1.3410742563,-33.3320852517,-34.9300024634,-54.25238375,3.5380392369,-88.3141311837,15.868692734,-10.6345288137,154.2056396781
4,-2.6379717542,-35.6626858443,-38.046494417,-47.919069375,5.5179496338,-87.2863244025,17.3282202894,-14.9021439585,150.6883701582
4.0066666667,0.7983294206,-30.4708100547,-29.8748633593,-48.5289471875,6.9240261712,-86.1409148675,31.7824562016,-16.2706986996,195.0573606359
4.0133333333,-1.1908271301,-22.8976445521,-7.7464878568,-37.95700375,12.4381443588,-61.2235007874,50.0814017934,37.5407341685,213.3416296002
4.02,-2.0388091722,-26.0912303713,-33.0087257016,-32.7851071875,-3.6166370163,-69.53109165,24.9559359543,-52.4470236838,122.8400729961
4.0266666667,-0.0845445444,-27.7274313996,-42.6622096889,-35.754553125,-4.6529130475,-81.2917442362,4.4637222516,-20.6725378525,130.7824049496
4.0333333333,-1.4478962379,-22.6981639149,-38.5356216293,-24.603980625,-4.6468529537,-66.0296948626,3.9778821117,-22.6886666804,69.3305639187
4.04,-14.7078224011,-68.7612483736,-149.8656905482,-22.8333896875,-397.6383549944,-52.685712415,-356.2761116433,-90.683974711,-279.1757363217
4.0466666667,-12.7393441955,35.1454554837,70.3531000378,93.7758571875,-300.1764971881,183.2962892738,-137.8538890367,136.4139328838,-29.7723364505
4.0533333333,11.0513721738,22.0231553363,-11.7267450585,69.1994828125,-364.54159916,77.0718455087,-263.8823676781,-78.2873592314,-67.8589359523
4.06,9.798746377,-4.2577167189,-88.9186191685,79.6809390625,-479.9130917912,24.0489022938,-468.9624999331,-153.299204668,-170.1953366935
4.0666666667,1.3749211074,-3.1882834707,-64.3717559528,106.8144040625,-474.3017342194,57.8086158987,-466.5909923566,-47.8867748015,-292.0470418432
4.0733333333,-11.2157907763,-27.7299884862,-58.1428120236,71.6804234375,-467.087160185,49.4641448263,-427.8440570583,44.1947620785,-284.7644289213
4.08,-2.1696336035,-52.9863671471,-99.447135686,30.8073534375,-495.1306262694,-42.8774016976,-434.7240515789,48.1034862343,-326.4138276659
4.0866666667,6.7483430342,-2.7056328149,-3.0617016715,74.2693521875,-544.6388601881,98.630377385,-501.6710808424,165.3309154311,-359.3792561998
4.0933333333,5.5724651452,41.9608218182,71.5067349584,122.4533328125,-564.0186739162,216.338662355,-513.7419417993,306.8555794789,-484.5527071185
4.1,0.9281141663,31.7400236774,8.4049740356,124.5731921875,-590.7460663663,167.8980060662,-583.7965501821,157.3805453523,-534.2001749829
4.1066666667,-5.7569423268,4.1880024934,-69.8808136118,105.1644978125,-637.5603686725,82.4367138538,-635.5715914853,35.5070135038,-601.7443057632
4.1133333333,-5.254890353,-5.8429862773,-105.4856352188,90.8679628125,-667.4306497788,31.6196298787,-647.4728840748,-43.5460082152,-592.1649335412
4.12,-9.6596796613,11.361705254,-79.6376981217,115.2755775,-684.754697885,74.62878174,-666.8154659889,3.3666531479,-597.9877375179
4.1266666667,-12.9505355669,15.9910032478,-73.5746680791,120.95836625,-706.4630573725,79.3180996175,-662.1089974777,-21.7659893784,-520.7818060201
4.1333333333,-19.6299369065,8.683958906,-101.8643824356,115.8855775,-735.9594614288,59.2110959425,-695.524558616,-86.6793167976,-585.7533000974
4.14,-17.3082550428,6.3822868855,-107.9044812474,103.2336809375,-747.8689902069,36.4612442675,-710.7853880304,-69.1631304925,-554.4880364207
4.1466666667,-21.4829436431,6.5646344197,-98.485754711,98.89154,-762.0651534288,51.2966670425,-724.0365101414,-50.1046264856,-605.6481774632
4.1533333333,-27.4798443664,9.8199789029,-67.9232543155,106.4826196875,-766.1570707412,83.9794938525,-735.9237145343,53.5704683446,-605.1582503933
4.16,-23.3437567395,16.2096696032,-46.4449676771,98.66240375,-765.7079274256,98.60643356,-728.4367629235,73.982839964,-646.8259285327
4.1666666667,-19.3029267679,16.8985084807,-40.6792462672,87.2269484375,-777.5975482631,91.5623060712,-757.9676279471,86.8776212293,-635.1363013428
4.1733333333,-23.2655882299,15.3664059078,-39.4558520517,87.89,-759.47051161,87.6334699626,-724.6196458226,97.1022619626,-668.356530896
4.18,-16.7571478703,23.4346619016,-29.3384667898,84.5697840625,-757.8980972538,87.4227090249,-725.7828211444,59.3832487148,-616.8663578236
4.1866666667,-21.2107167976,16.6086990833,-40.5463080483,74.25682625,-734.8264888631,71.6363330488,-703.9419661374,42.2783434529,-630.1738954404
4.1933333333,-16.9570582714,19.5311073982,-38.2482958404,68.10077,-719.0577240881,60.1669955675,-683.7182696366,17.5574315674,-558.1118768168
4.2,-24.706203827,10.6713925849,-49.148040071,64.5757934375,-686.7247954788,48.5558812775,-654.4366336714,12.7543787255,-605.2964175268
4.2066666667,-24.7086376684,11.8830787882,-43.8667594358,63.141201875,-661.6851906225,47.5060847713,-618.0828958895,-29.3426311007,-470.7300019229
4.2133333333,-18.90788402,17.9374280706,-27.7584738615,56.0402159375,-652.8583672912,52.4581237775,-621.7293792134,23.6611601075,-558.6376082161
4.22,-28.7626159799,7.0378471957,-40.4924971371,48.212450625,-616.2652959038,47.1311376488,-568.2501559184,-44.4084090112,-458.2154282624
4.2266666667,-25.1502440185,2.2310392661,-35.3086895784,38.671155,-615.6108309787,25.6479800962,-594.778274526,79.0188262041,-482.5768505406
4.2333333333,-22.8788683824,5.1890719633,-34.8504826982,34.021155,-586.9858613381,28.1388435038,-548.6655200772,-6.9051556882,-477.0816629748
4.24,-22.728414745,9.6082431734,-26.1218684761,36.77528625,-593.2494520506,35.7577171012,-565.9817074554,9.0107468992,-470.4306807624
4.2466666667,-23.1434512296,3.6713298325,-21.9594650702,22.2755775,-566.9162361944,30.257548485,-528.9618933342,29.135496633,-417.0023969844
4.2533333333,-30.8242652905,-4.3992462567,-36.3099021905,23.933605625,-559.42024741,19.7342866475,-527.6949824677,8.8499102435,-432.7759976407
4.26,-23.2078897373,2.6356038828,-28.0683656068,23.9693990625,-539.9125992131,17.077292055,-506.0428053464,-4.544694477,-434.385565106
4.2666666667,-31.5341254499,-5.598060657,-23.0877951217,19.1937746875,-517.1615753162,24.6112226613,-482.9139360252,36.2033912672,-382.6874565624
4.2733333333,-26.4135294924,-0.4335356388,-21.8593365824,16.6586759375,-520.5768053131,20.1288277175,-488.582043906,6.3896105255,-386.3713790796
4.28,-30.3671563401,-10.395289579,-35.7054959945,8.339953125,-492.8732665475,1.6802778787,-449.2198834688,-6.2024914612,-329.5748053724
4.2866666667,-32.042971751,-8.7797742542,-31.4574157588,12.6833896875,-487.0005010037,8.2757372251,-459.2834712556,-0.6320288488,-366.783289345
4.2933333333,-31.7580669628,-15.3323933723,-46.9286117074,9.099089375,-471.6291111663,-11.5375860963,-427.5078794883,-95.7790613225,-353.9689535577
4.3,-37.2854715172,3.2362091024,20.8040903948,25.304656875,-487.8370579819,60.1266660562,-459.7381560651,228.1456457004,-323.2282125375
4.3066666667,-30.8110330965,-12.594775171,-35.3350790639,1.3275025,-477.3100691287,-5.348497385,-443.2067862861,-63.941382281,-377.9798026929
4.3133333333,-38.5526731347,-21.4312562614,-36.750508742,1.130723125,-483.4694580475,-10.7707158875,-454.2616933832,5.9464363884,-367.7597544848
4.32,-42.3081766498,-6.8356633476,-10.8585148623,12.8699246875,-490.73940441,42.6188580363,-454.2178750929,-30.5678025296,-397.7327169939
4.3266666667,-43.1248839079,-21.336745296,-17.2898149056,1.9581971875,-509.5594515881,0.8115856563,-478.3193704567,121.1717679662,-365.5055523487
4.3333333333,-44.425609235,-19.7773556726,-24.4981632315,-1.8786290625,-502.6451623444,5.8950084375,-472.495878027,26.8825859055,-393.0124444788
4.34,-42.9703970857,-16.1511676003,-13.9155234195,2.5169953125,-511.0600792725,10.6350049538,-478.0528171283,40.9209361658,-384.7058884931
4.3466666667,-43.3130734416,-24.2159108599,-53.6375303778,-3.782929375,-519.3459360287,-34.3807439388,-483.2617748783,-64.4962368948,-371.0840228729
4.3533333333,-50.9950795368,-3.7190392355,52.8737121574,16.50297625,-524.3432766913,87.5314794512,-496.5888557467,193.6671689793,-430.3799584231
4.36,-49.4873788477,-23.5666202845,-30.6200895061,-1.7936525,-535.7772364225,-13.1579331612,-502.6757189236,0.3374626368,-399.2542323202
4.3666666667,-60.9505998128,-29.1697013992,-29.3135342616,-2.766394375,-547.4569646944,1.2486893937,-513.9104841849,15.0612897237,-421.4978886003
4.3733333333,-65.9311864123,-39.5694628246,-43.179763008,-12.1422815625,-558.12496746,-19.5396750076,-527.9946041763,5.8650939285,-438.9742033257
4.38,-69.9227851124,-23.5307555107,-3.1769440877,5.6491546875,-574.0444278475,37.4814228863,-534.6927192313,51.9047603003,-411.6365088169
4.3866666667,-76.7885393554,-43.0510441468,-45.4313984926,-11.0882440625,-595.1789344162,-15.1997209363,-565.9357997013,-28.7921718522,-487.9290242655
4.3933333333,-75.000229866,-42.5112772635,-40.2780994908,-12.378121875,-599.8318617975,-25.4976898837,-565.6535322584,36.1465132342,-457.5762406287
4.4,-81.607381188,-34.7482431363,-18.0710086197,-7.483990625,-622.0956478569,12.5673299424,-585.905454291,35.0438749524,-478.2649106921
4.4066666667,-81.5807631446,-31.410941187,-23.4132501428,3.3299246875,-625.3631211538,3.4022195162,-587.3995509859,8.9414628363,-476.1521077945
4.4133333333,-85.3542295263,-39.7009391326,-31.4349218938,-12.8128825,-636.9574861725,-11.6429500562,-600.9728586767,0.5836276137,-498.4109016671
4.42,-87.3364117793,-26.3481393435,-4.3774590806,3.89615,-645.3982815319,23.1063629899,-606.2147477893,42.8487943099,-509.3383269361
4.4266666667,-90.9340569087,-51.733438157,-57.4934494532,-22.4604034375,-657.8880904912,-54.6937913312,-625.7592260636,-51.9360056611,-509.467520654
4.4333333333,-98.0898705421,-32.7755867312,-8.0404193133,-5.5648359375,-669.6242491038,22.8377033963,-619.7503468821,26.1565149922,-491.7348566577
4.44,-103.2072066447,-59.2755188903,-56.1634985484,-34.0459809375,-690.6154923194,-58.1691328275,-664.5976242559,-22.3439582954,-575.0450772949
4.4466666667,-109.5608373032,-42.3249721488,-19.34208643,-19.00183125,-701.5905285163,6.6278515875,-656.7939309859,5.8466762473,-555.6229395211
4.4533333333,-111.3226528594,-60.9210822296,-54.1990715573,-41.9895396875,-717.7359145131,-58.5792594762,-687.6736638412,-34.1994872741,-580.0475601502
4.46,-118.2571543696,-54.2635944419,-29.9476759369,-35.0205540625,-722.5801925444,-19.42508251,-680.4781943015,5.6624818939,-566.038821327
4.4666666667,-113.1262759115,-44.3275422925,-16.7093206223,-35.15231,-733.1964195475,-16.8399521412,-691.6019465498,9.1992258588,-594.0790439228
4.4733333333,-120.1098298565,-62.4024776605,-41.6713468043,-57.008121875,-750.3601916194,-63.5644077425,-729.6075637074,-12.6081035947,-634.0690831638
4.48,-107.7705978434,-34.4665365016,-5.7343848167,-40.77990625,-743.3889691538,-20.888722615,-692.9439066904,-10.6387552748,-570.1265465542
4.4866666667,-123.5130362194,-53.4969088068,-15.044739877,-56.776394375,-757.8626267256,-35.7238292975,-719.4044821927,20.5042247965,-614.7856668409
4.4933333333,-122.8320117459,-47.0493953732,-24.3181352593,-59.42471375,-764.63656156,-41.2242962712,-717.3285505098,-36.2460788773,-589.2735280788
4.5,-121.455564831,-56.7917497302,-32.114086491,-78.4378590625,-760.0479806006,-76.2666821087,-729.2867244447,-28.9463940887,-644.2368247995
4.5066666667,-125.491223209,-54.8590538173,-15.7697576518,-79.7786290625,-764.0535868413,-62.8857374113,-736.9008298919,7.3750664266,-644.8596476735
4.5133333333,-124.9532602791,-40.7835535173,1.3660064047,-70.6248828125,-755.1786112037,-29.4642496137,-709.0671495321,12.0232625344,-593.1442535709
4.52,-124.5026520637,-54.752261196,-26.8505020748,-91.8330515625,-756.3649776038,-98.0045423737,-737.3308055448,40.7558699902,-642.2960647356
4.5266666667,-124.5805301866,-39.0158795315,-1.1385755566,-85.347455625,-742.14067391,-37.4470787137,-695.9372345594,-75.2464963777,-636.0255573554
4.5333333333,-123.6752658629,-50.8907902288,-33.7627210373,-103.982450625,-737.8907490631,-101.4023803388,-704.0573591408,-61.9648616587,-598.2980277927
4.54,-123.2256983699,-41.2211554348,-21.0462073466,-100.9653615625,-732.1150473819,-75.5447895738,-690.6570483641,-137.3333917698,-593.8933061357
4.5466666667,-115.4323390343,-42.7975013633,-16.7278913017,-113.342065625,-719.1663806631,-121.40488244,-688.7356129319,126.708241534,-554.4371057759
4.5533333333,-116.2395447883,-22.1369847236,11.4069929284,-99.7268078125,-703.3325088444,-44.0123704863,-657.5297616388,-77.6147460961,-589.75283236
4.56,-111.6526277153,-32.8171105239,-15.948519076,-113.390816875,-684.2124424475,-104.3034346375,-644.6781699546,-63.9379743416,-558.0708907451
4.5666666667,-108.8960058305,-27.910002482,-2.2476315918,-118.9355775,-657.8759640038,-91.9284060974,-627.480612965,-8.5391221514,-534.0830262926
4.5733333333,-106.4946787312,-27.0707186632,-7.8046038605,-117.7713240625,-626.6565451162,-87.7347661263,-580.0868508349,-48.6381239584,-479.1745941114
4.58,-94.386232822,-20.1315196789,-10.0197462259,-122.1660846875,-580.3114485194,-96.4407861087,-539.4511800362,-39.6280341086,-472.5574523313
4.5866666667,-89.9920604474,-11.9631076869,48.2562288473,-117.6244509375,-538.2774313069,-34.68751245,-503.9490394695,105.737040108,-398.1620119047
4.5933333333,-85.3610996511,-24.8602174814,-32.7769802401,-117.848319375,-488.6511992319,-99.7365213637,-418.4450605044,-86.5820020779,-252.1950616236
4.6,-68.9175676909,-10.8534865736,-9.5272182687,-110.9680565625,-431.6418199944,-82.1892731737,-370.1400563848,9.1301240725,-257.6486506443
4.6066666667,-63.0559170232,-13.5032688578,14.592637825,-125.7529578125,-379.7193604538,-56.8886352913,-347.8569996405,7.2979384787,-243.3998639121
4.6133333333,-50.1098869239,-6.8108248488,-2.17862919,-102.66616,-316.0360642131,-54.9904412125,-276.5138719529,-78.4399046004,-188.5800149842
4.62,-35.7768368456,0.4060501966,31.201543412,-88.1368078125,-251.566683285,-32.1184212601,-208.9592120374,223.4395404238,-65.6554102498
4.6266666667,-32.8248086837,-5.1263663875,-11.7109351453,-77.3892115625,-199.4453558412,-32.4941229087,-152.3038327854,-139.1363928086,-74.5619468058
4.6333333333,-4.6775440412,14.2814761149,31.0633692456,-57.937070625,-125.1064419881,-10.7899591875,-100.2880073227,113.7435931964,20.8446179969
4.64,1.6097849642,7.1548172675,34.8018056035,20.483116875,12.4698818431,61.1788865512,46.5110377749,85.9255744433,164.9692027941
4.6466666667,1.984889846,-0.8509081044,17.1948706361,9.69615,24.17616494,39.4606306238,51.5737370551,57.3495459097,136.9204833295
4.6533333333,4.2662662195,-11.1823566613,1.454574698,7.51451625,32.5142479306,13.693003335,84.8480166819,95.055965793,212.3133700911
4.66,4.8675501345,-15.3654705576,-37.2722676915,1.2726196875,29.0460562775,-19.0756538325,74.8355882994,-187.0946334765,85.7339574738
4.6666666667,2.5591991976,5.8013872327,42.0592424171,25.8766003125,19.5080747244,67.3100881875,62.6338921205,213.1223833935,222.3861692111
4.6733333333,2.1656175462,8.6474680227,27.6310813828,25.088788125,14.5751584119,66.4181092575,36.6384604745,-22.3376125545,77.8121084699
4.68,27.8919979039,27.8265159163,72.3782976989,31.670036875,40.3808694713,86.4065506038,74.8631793311,135.5330106978,178.1457114119
4.6866666667,26.4119951288,16.7259987993,10.6050321811,22.2777553125,39.5845089088,16.0432980375,77.5710190809,-46.9928175045,205.5412958235
4.6933333333,23.3879867545,17.5362891139,22.9922002471,16.880713125,25.1909802869,20.2148262487,67.3781309549,4.5960538446,236.1742880045
4.7,18.4690367178,13.8369660373,15.2513839916,13.0071075,20.151077115,15.4278182175,63.34382553,-15.1753175262,272.0916566652
4.7066666667,27.1392727118,28.0486157457,43.5149518207,24.042731875,22.5005049181,45.4730957349,55.6205625425,17.7011287987,229.8264771815
4.7133333333,12.5287923606,13.8136123349,27.1310980159,21.218309375,16.0417338431,45.7099316825,52.6945210294,-46.9753388093,227.7251674515
4.72,27.0632217156,21.3539233382,34.1202578046,15.3072296875,24.235716015,21.2221904613,68.8150481509,61.0479296132,288.3172965199
4.7266666667,2.1053597586,7.7341517294,21.3619072582,13.211004375,-3.3590830319,26.1859827262,13.7355431499,17.8889537362,153.6942574437
4.7333333333,22.993740685,19.9662552955,32.0150377247,8.1815584375,19.9743928775,18.487847035,37.3910031245,11.1424316411,176.3959733441
4.74,19.2087913211,12.7468803088,-10.5618076473,9.942544375,21.1247542088,-20.8387280338,42.7150304295,-104.4978725518,224.1534451179
4.7466666667,18.3314110511,16.965472672,34.9924701665,10.2415584375,21.5260672025,28.9705832662,20.1999710187,52.3987418723,68.264769112
4.7533333333,20.0494179711,18.2265745222,39.4903334508,13.4224690625,28.9235721587,41.9050768626,38.6574964645,33.2174602026,177.3267980077
4.76,20.7988665089,9.1689011259,-6.2840112466,-4.5898309375,21.768336165,-37.5119631138,28.5544971307,-58.7196899959,82.4506507771
4.7666666667,21.6098995349,21.8818527524,51.8138156005,21.1940559375,28.5321289869,49.0275650063,36.5800290553,119.1392353704,192.5926067454
4.7733333333,25.9113227637,18.4155355856,8.2214875497,9.62413125,29.0998629431,3.65397765,42.9329817754,-153.5066647682,48.3145960108
4.78,24.9163272047,22.9708627227,47.4462125973,12.3307884375,20.8168046181,19.0067883225,30.6804709338,156.7895479127,215.8779960461
4.7866666667,24.1675078953,16.3748341741,19.6208679462,7.7127134375,27.5786762837,10.2212662587,44.4990175127,-64.6981832433,62.3652340002
4.7933333333,16.1543568882,16.7452224084,38.3035326788,17.549464375,22.3686779744,39.6289269662,40.7906527593,29.6961641582,192.3065011286
4.8,23.0423671239,17.0021782167,21.3164645702,5.6646853125,23.0076316369,0.7361991375,36.1827120548,-1.2167392123,72.4692797791
4.8066666667,21.6834653287,5.3232060588,1.1558524949,-5.4054553125,28.1579181181,-33.687503265,48.8303609592,-41.6436557431,184.0395291859
4.8133333333,-1.4289922664,11.6501032004,35.6964729035,23.149558125,1.6217080213,64.66389183,24.3519881814,29.252976948,114.4149030311
4.82,20.1226656156,0.6297338656,-15.8100843139,-8.1691546875,29.8156377837,-54.2427267862,38.6202237264,-57.6112495402,91.278096099
4.8266666667,11.7962142921,13.1883596082,41.1344349286,19.351961875,35.3895185181,56.92350664,74.2078079027,-13.6047905721,242.6102999249
4.8333333333,18.4699482601,3.0071468902,-9.7881921241,-6.08846,33.75275774,-30.6756980487,40.66127576,-85.5118397186,85.8343047764
4.84,17.2309921903,4.0457348697,2.7049132322,1.97201875,29.2712604681,-22.2304242425,57.9969585501,-53.6881184644,158.8732338639
4.8466666667,0.4283098516,3.0219836378,28.4583359248,10.1809575,8.5368809994,19.4059331213,25.4108136125,210.4364445231,135.5470940627
4.8533333333,1.2676569312,7.0064855055,-4.1644099638,13.453408125,0.16849754,15.6098151675,9.2823187824,-200.0466570284,94.065435213
4.86,-0.1773371452,-2.5090654089,5.4892642223,5.5146853125,8.2944772494,5.96400156,42.3490038376,-6.6294918,104.249837521
4.8666666667,13.1156985484,14.0900392354,24.8683323211,11.063023125,26.6086161869,29.6163637462,33.5887294082,-7.3071906577,82.5559033791
4.8733333333,3.9995203777,-8.9615896801,-20.3190056675,-4.7874740625,8.8871544181,-45.6356070337,33.0295935665,-85.3903302457,147.4057623545
4.88,13.0938081737,20.133026653,45.651159418,18.714271875,31.4643758119,58.8340150124,52.2271483207,20.1776716722,121.5060647305
4.8866666667,18.0085810824,-2.3383719281,-12.7994858355,-4.10490125,38.8208982119,-49.2324216649,67.0852309082,-87.8650930248,152.4743500269
4.8933333333,17.4880523144,13.0719396838,25.1854268241,7.3251640625,45.1229896588,17.920631975,69.0263117176,-31.6934709069,140.0481960148
4.9,17.6671693773,12.6536257446,22.9113193029,18.2820840625,50.0612632275,12.09582334,80.1764990126,-36.9572536163,137.7420462789
4.9066666667,11.2857035409,2.9250720419,14.1788820489,-3.289276875,40.9435229713,3.3470774588,76.9394377888,-35.4560321571,163.4042116785
4.9133333333,9.656633442,-7.213079026,-19.4637517031,-13.1920371875,33.52406689,-41.2572006538,54.8581240187,-84.9414725458,117.3214039469
4.92,23.8485573734,15.0196762992,21.1354061211,11.635811875,48.8873651244,-11.2762072925,84.7997910751,-55.2776837165,166.5720683695
4.9266666667,9.5645396726,13.6311138209,37.9475436597,10.7759809375,42.8005228931,38.0249124662,81.0285599824,4.6639910523,146.1007288264
4.9333333333,8.6598042025,-3.2369392811,-8.4259506512,-5.9190609375,35.5241166837,-24.5439190237,46.9851877692,-38.8938732998,55.0611467682
4.94,11.2639110493,4.4539192723,5.7171405202,4.8410796875,48.7199971087,-17.62939687,109.2684795518,-99.6291355901,213.6983925032
4.9466666667,2.111415244,2.0609461422,13.9671201792,7.393314375,23.5659134994,10.0060339387,53.0292520438,-14.2269719872,116.2431704578
4.9533333333,11.0635835395,1.2248351538,-3.9482877957,-9.6599246875,44.2981592556,-24.1569812612,72.5561797583,-73.5272627493,121.2404735681
4.96,9.2618987654,10.2925792036,25.8547580054,4.18846,41.6437993087,7.643064505,77.9428393469,-7.244243717,117.3531615521
4.9666666667,3.4548403547,-9.2765888797,-8.7207654963,-6.9318965625,67.2364580244,-37.4815145737,128.1198598654,-108.6442208498,238.2577973542
4.9733333333,14.9749530686,14.3047241881,28.8749249431,2.1121878125,48.634059665,-3.0005335713,94.7343272987,-30.2114745813,159.1581206105
4.98,6.7315943037,-4.5029809257,0.9103154515,-15.2259340625,57.80976334,-40.3099075475,120.7595535013,-41.6047648534,206.9854771129
4.9866666667,10.6140816503,5.2613768437,11.7298887913,-4.00538,58.9307775556,-28.3842845637,116.0121632582,-77.1438289677,195.8786094428
4.9933333333,6.4162893156,-6.4022969041,-2.9246586252,-20.1548728125,44.3944369775,-47.7637237576,95.1288109077,-32.9024547136,186.6847175361
5,8.2312958877,-3.8861841922,5.635217992,-23.311098125,46.2968296588,-44.6691671562,104.2207688354,-26.1221708262,202.5731376416
5.0066666667,10.1169769229,-6.9741165053,-4.5037354557,-33.337633125,49.911984965,-69.1290149025,121.2405669848,-72.7413590505,282.5656104266
5.0133333333,3.6924886886,-14.43043467,-8.1176442159,-31.0918396875,35.8422390213,-60.6409905525,82.2883246927,1.3701282555,147.7368780188
5.02,2.0197589587,-12.7952125999,15.2772920757,-32.67845,32.61462679,-39.05905166,80.9646239843,40.0361351141,250.5111827999
5.0266666667,10.2613651605,-10.3242945926,-36.1262914415,-32.791670625,29.0530391494,-90.1168056412,68.7663851558,-107.3476398834,146.580944114
5.0333333333,2.1327149809,-18.5684154849,2.7736820699,-40.5863559375,26.4640504462,-64.00521627,90.4495534262,15.7243795681,286.4625694808
5.04,1.9179594135,-19.7910950447,-8.3772920799,-36.92537,19.1992752275,-53.7646235526,28.8731559572,37.8009622855,124.075257665
5.0466666667,10.2882241299,-15.0641299944,-21.0050638326,-36.60738875,22.0753251775,-76.8157513549,26.9011224649,-28.6409048569,148.5729954888
5.0533333333,-4.3598234862,-33.2711191533,-37.4635230287,-47.790318125,18.8604319181,-85.0975592151,35.4537439911,-17.4241027911,155.0547922048
5.06,13.9191546693,-7.5682910091,-3.0181610826,-33.0168346875,19.9189882837,-67.7595527663,47.3595408406,-8.7737130023,176.0245901962
5.0666666667,-3.0439138256,-26.1565098985,-11.865839164,-41.033398125,18.0835730837,-66.0792807862,58.3597304451,6.0610782638,224.0361572505
5.0733333333,8.4206224327,-13.9848987158,5.5728791161,-38.989360625,11.2843350931,-56.2134092337,44.6576966954,38.8177544763,224.6154290349
5.08,5.2102960185,-14.4044372681,2.0933639315,-39.5299146875,19.6191040119,-52.0734561576,51.7440582999,24.6545326163,181.6615921173
5.0866666667,-2.0915513052,-19.2485570126,-12.8808348933,-26.6644125,-2.9500267037,-46.3721382899,27.2177044554,14.3701623901,153.8566690428
5.0933333333,0.3909353582,-14.6562971313,-20.4297512476,-21.9981403125,4.7129618431,-48.5575501951,20.9218208999,-15.4901613329,106.4882431488
5.1,-0.6654239218,-23.6980312062,-47.9516063413,-30.179266875,1.3483977931,-78.5289600337,16.7472282752,-72.4286907879,101.3227414412
5.1066666667,0.0937518905,-33.5018388161,-86.9248499741,-9.2391546875,-210.9015118381,-52.7878493262,-188.3657591828,-68.2858946321,-133.5579975867
5.1133333333,-9.402289017,-39.6712896535,-95.9934651882,-1.1528171875,-339.5383262537,-18.5105723613,-279.2687386033,-33.0333320914,-198.0579606745
5.12,-3.8899575611,18.1873200028,11.6818090869,61.835604375,-302.4286402631,109.3535183214,-205.0538017195,8.9535495475,-100.5467181133
5.1266666667,5.213064351,27.7233529508,26.3151016076,67.0947221875,-336.5532032444,111.6796427049,-232.0211922018,27.1659397089,-15.8472242208
5.1333333333,10.6165718805,-8.0033847423,-80.2461566462,63.7755590625,-429.7742925975,-2.252163135,-402.6606137239,-131.766300111,-172.3251204276
5.14,0.2419323655,-13.0778897395,-56.9115942384,74.7140475,-442.9946448538,27.4542183188,-403.4823095659,-29.4555887991,-182.1999283009
5.1466666667,-4.1941224955,-24.0617106544,-53.2688282526,49.69145625,-451.6565495663,30.9531030562,-422.5010392932,52.113485978,-256.6913392404
5.1533333333,-7.350389298,-38.3361068271,-73.8705467481,36.3808084375,-484.7507429225,-1.31977871,-429.5862662647,35.1185001043,-272.5008744409
5.16,0.7751973876,-6.2891415126,-36.5657120604,66.06385,-510.9086874412,56.4377546837,-479.1679529603,120.1579904477,-418.0778845919
5.1666666667,-2.9551476246,33.2572563885,26.6874472617,113.0549196875,-514.9356323381,161.8453780925,-478.1320288107,133.9526840585,-375.7568437233
5.1733333333,-10.7939433136,19.9478389563,-21.4297455591,108.0643940625,-557.77077396,124.878771975,-543.3991752581,108.9664670191,-550.7140274958
5.18,-9.4558688177,9.463969062,-70.2941562283,95.586300625,-582.7256867412,64.9410668725,-580.1836131314,-28.9183338276,-486.3525925051
5.1866666667,-11.9338880302,8.6703978435,-91.2045868796,98.072356875,-626.7174552788,49.1792864551,-617.2634363385,-59.7141887429,-588.8825997747
5.1933333333,-7.9385060985,7.6081420897,-111.0522524276,93.9232490625,-639.9819180506,9.4074847987,-611.2143900252,-129.9920710254,-504.5266436215
5.2,-15.1426594196,9.0448528612,-93.6790790738,90.838319375,-656.1822835287,35.7745355075,-621.1871157084,-76.7312838384,-543.5363668518
5.2066666667,-13.0570506619,8.970406333,-93.9895199978,84.111925,-669.4455016975,24.0069372138,-625.5601843704,-120.8087676342,-471.1203730314
5.2133333333,-13.4406716807,26.8428153494,-45.7222588981,95.8128825,-689.2691774037,80.747573025,-651.490091201,32.302865955,-554.1227134827
5.22,-11.6063124365,19.0599760613,-59.3373029386,84.079568125,-699.785420085,53.1614796962,-669.6956118681,-8.1181749298,-533.0152300845
5.2266666667,-17.0779117199,13.4720900922,-57.8891838462,77.7953146875,-714.0188465038,57.5115623588,-696.0101416093,33.3756115508,-650.4803758543
5.2333333333,-17.0560926349,30.9938037738,2.0082727484,84.2639621875,-717.6779764537,120.472010935,-673.0510929773,125.4999394869,-557.9822820545
5.24,-23.2681539537,4.9853906883,-44.6790232144,61.4678875,-724.9628151506,55.3445932413,-694.185661906,96.6853391134,-628.2996503896
5.2466666667,-19.1741287526,19.5354668644,-13.5676059799,69.2336525,-717.3992184413,85.3577314025,-679.8129339958,81.9181927084,-546.0503604671
5.2533333333,-26.8455105127,10.1825691782,-23.6877463814,61.501971875,-718.29676351,74.5165957775,-675.7141989969,81.7412840737,-565.4178959619
5.26,-30.1351921937,6.4921394074,-36.5063220294,59.43798125,-703.0335146069,59.1013827462,-666.3112311014,52.3903764161,-563.3215214132
5.2666666667,-34.5445604216,0.6867478367,-50.9251624442,54.1590140625,-695.4681378287,45.6321110888,-656.381665724,-4.957277369,-542.9234963205
5.2733333333,-29.882727755,6.8263140842,-40.9991337395,53.1233896875,-675.2366304131,43.8432212399,-645.3959439572,30.7620850918,-585.8871638528
5.28,-35.9832199499,1.1015064073,-46.4857018041,48.938798125,-661.1696114319,40.1475914763,-628.5079885318,-2.2181511299,-530.097149935
5.2866666667,-40.8655922317,-2.7898087093,-48.690738893,47.0486290625,-644.2436726006,39.05888444,-618.7468014961,-13.41005923,-503.9736536035
5.2933333333,-48.4646369367,-13.8642699684,-50.8519586243,40.0853615625,-614.0886839006,31.6626253313,-578.2236615913,34.4440829816,-531.7245282553
5.3,-41.3759282313,-4.4861146938,-50.062076051,42.8690140625,-610.2839895131,30.8159891187,-579.6014647578,-85.6880276495,-478.5817372453
5.3066666667,-44.4791617553,-4.3291653164,-21.5053746617,46.030385,-581.4383998756,42.86495981,-551.6822595012,129.5706881541,-449.8524768329
5.3133333333,-44.586252137,-4.7119478952,-27.9713535229,41.2844225,-576.6787506006,43.2239450562,-536.7312004437,-2.4842811257,-439.113136457
5.32,-44.2865429931,-3.719617147,-25.9689254336,48.244375625,-559.94982906,37.1288513637,-529.8633790545,17.0928874917,-424.7166785487
5.3266666667,-47.2234657564,-6.8083112378,-23.7406239747,41.4145915625,-555.570031935,39.3631286263,-508.6060743069,25.0865574882,-419.4095539251
5.3333333333,-37.9746061856,5.9589616858,-7.6435443077,49.2670421875,-542.2807482975,43.8977907663,-507.0967821432,32.8666480864,-401.7547878024
5.34,-56.5868581387,-6.0907120325,-2.0166025287,46.9539621875,-538.4528520412,73.5934405362,-468.0261285761,62.0746550681,-362.3060927147
5.3466666667,-49.3037483413,-19.5752186633,-42.1586671472,25.7352209375,-557.8854706444,0.3939400512,-557.5660821103,-3.4125143327,-457.1563815223
5.3533333333,-60.0750544281,-29.3418928159,-54.9437634454,25.1390425,-554.1140291631,-3.5278005088,-554.2257665648,-10.7027776467,-452.4471153734
5.36,-69.0577463904,-23.710251529,-12.6248831238,33.1218496875,-538.90379356,58.1179810687,-475.1397304179,78.2273280786,-369.8883997605
5.3666666667,-58.886905518,-12.0160799615,-7.2703895715,40.2007415625,-523.2465996788,52.1900226788,-484.3922406161,40.8180034869,-385.7787698705
5.3733333333,-67.6859626823,-30.5861586806,-39.3013088947,23.9317559375,-529.1513161881,17.4804141762,-493.8610766356,8.9632357722,-409.9898048746
5.38,-67.5349048279,-23.6627274307,-14.6072718867,32.750816875,-531.7259859819,40.2438260613,-493.6541057227,53.6421667413,-389.4445789051
5.3866666667,-71.0105440112,-28.6448422742,-31.9209237757,28.266779375,-537.0224047912,24.5323239199,-504.6501944153,8.9135515158,-408.0547599647
5.3933333333,-74.1688847595,-32.2047220838,-46.2769543311,30.3262253125,-537.6579928975,11.5816532088,-491.0593884583,-27.7588103532,-372.0117911371
5.4,-76.5274281934,-27.0089445139,19.9406945595,28.161971875,-536.9397107162,70.0828668213,-514.0453912576,158.6231736153,-445.5227946088
5.4066666667,-72.5876271747,-27.7779653751,-21.6336305244,25.33,-548.5780177944,24.7609697349,-512.873917555,21.759362671,-408.1786417078
5.4133333333,-73.0121116597,-28.1479628276,-23.4900152423,23.5566103125,-554.1698536537,19.3331930588,-513.9595778702,16.8926119208,-409.9844036545
5.42,-78.8932041489,-28.9123619625,-10.0901926291,21.35644125,-570.2171429756,35.5814205112,-537.8114748639,51.6641637232,-434.7566672307
5.4266666667,-87.7492827119,-42.9346610893,-28.6077578688,11.252356875,-584.798148435,14.113055475,-551.3273520603,43.691194485,-458.0800824609
5.4333333333,-88.5770111746,-41.0388393084,-30.1266782013,9.6448075,-592.34488001,13.6357929925,-557.4892489828,18.4435721305,-449.5509118756
5.44,-89.2715317988,-43.7568617421,-28.2157845221,1.324375625,-601.4312236663,6.6454304937,-566.1479959348,37.2485662377,-468.6937420497
5.4466666667,-95.3134622435,-42.6041933887,-28.985381498,9.806779375,-615.9470893381,13.5653331063,-581.6490768761,1.9494925203,-467.0461305197
5.4533333333,-93.5455437878,-38.6897741073,-17.041771861,6.564854375,-619.2816813631,17.5762118937,-581.3375919308,50.0091916917,-477.5456388405
5.46,-100.4651757429,-44.8504145811,-24.4218651406,3.2273803125,-632.8209756069,11.6501165437,-592.4399518756,31.6860804157,-480.7240402
5.4666666667,-102.3275988371,-48.5017141328,-38.6358736398,-7.52077,-646.3336054381,-3.3455492987,-614.0162458484,-63.2072523227,-524.1659053789
5.4733333333,-108.4011781573,-55.3029937793,-34.663150348,-12.14682625,-661.7346319506,-19.9445620263,-622.8178894471,154.0776317458,-471.2286579397
5.48,-113.9340125981,-54.5916571449,-52.9689585376,-15.3763475,-673.7114920131,-2.4495657013,-633.9751204925,-216.6644143153,-549.4616279141
5.4866666667,-103.2756178011,-48.4099765197,-26.1264538161,-23.346009375,-673.9549983537,-24.3799031625,-631.7604627301,120.9684212355,-491.7799702148
5.4933333333,-112.8596666735,-56.4513600676,-45.6430428727,-26.0258403125,-686.7377025725,-30.9706511263,-645.6803723787,-19.2080442644,-532.6610814843
5.5,-109.8203272592,-48.5754237927,-23.9331441282,-32.6485821875,-693.9350570631,-17.5420724337,-659.0013709418,24.7502870344,-546.9656508164
5.5066666667,-111.6434216035,-51.4699701825,-35.6670879182,-36.264375625,-698.4061816319,-33.2590873675,-658.6086471314,-11.3932794415,-564.692644097
5.5133333333,-113.6741993399,-52.1373888032,-29.7825029111,-43.2321878125,-700.47897161,-32.7097920925,-669.3489496383,0.8215675774,-572.8072505823
5.52,-108.1359424607,-45.982628486,-17.5742183897,-45.8097840625,-696.0647097194,-32.01779641,-661.5825864268,21.866731664,-560.7728293768
5.5266666667,-112.0177521455,-48.4560557048,-22.2961751232,-47.3233896875,-696.2961021725,-35.502796505,-655.1509609695,1.4941410372,-562.7677186402
5.5333333333,-107.6812517806,-43.7293587852,-13.2650773871,-57.8901690625,-697.0167369225,-38.7608019025,-666.3945433678,5.1672913833,-572.1812202646
5.54,-120.5152588374,-55.619503355,-25.3857608574,-63.46317375,-702.46013291,-45.4477688437,-669.5274199494,5.5085353045,-576.8686357728
5.5466666667,-115.5018979851,-50.6279244454,-24.2350698868,-70.5893990625,-703.6028088506,-56.3325478875,-672.0932312544,-7.1824158137,-582.4557018852
5.5533333333,-119.3708641984,-57.8974702627,-22.8773423752,-90.712159375,-717.8042325006,-76.7281628763,-704.5296262018,64.0585709758,-625.7068776154
5.56,-115.0342259986,-38.0368435648,-17.922981363,-64.333803125,-705.2970366256,-34.5934207775,-648.053811564,-174.6936672096,-586.52060373
5.5666666667,-116.9889945681,-47.2802942872,-14.8826355769,-88.6659625,-713.2442824537,-72.22938337,-676.4525104026,66.9949998021,-550.931099991
5.5733333333,-115.3171609331,-46.265020527,-34.6097843911,-90.3866103125,-701.0939752225,-88.519382585,-662.567049545,-61.9191786591,-569.6954542682
5.58,-111.9610261598,-35.4280201139,1.377751085,-88.2521878125,-695.3288588006,-63.729470955,-677.5703639764,-3.7920175949,-613.2850517476
5.5866666667,-106.6776153975,-28.2403476894,2.0664154326,-87.42913625,-682.1557425319,-66.176011325,-650.1567211714,-6.458707379,-553.8763607746
5.5933333333,-104.02116769,-23.8357535356,0.4372516792,-89.70317375,-677.1282950569,-72.4970045075,-638.4318963082,-23.4202555716,-559.9732227742
5.6,-107.261927375,-29.6133193266,-3.5135594992,-102.710385,-669.2307038788,-81.1688581237,-630.2240592575,-16.6437750396,-545.9868186857
5.6066666667,-100.4824086773,-25.2542934209,-7.5976109615,-115.5453615625,-654.0053495413,-96.2636311074,-625.6204477272,-44.0385088315,-528.503756277
5.6133333333,-110.7927785845,-36.9993772655,-27.8929109193,-124.417164375,-649.0225793881,-107.6758586551,-600.9793921186,-59.2335187831,-500.5812908008
5.62,-110.7436429267,-31.3290245711,-9.8366894152,-123.4267325,-637.9852328881,-95.7222658137,-608.8542950833,-27.4877834636,-542.5518934386
5.6266666667,-112.9599047049,-36.066048573,-22.3994365287,-134.780338125,-627.2995662475,-106.8675379537,-590.3781998856,-56.716081126,-469.7966582605
5.6333333333,-101.926852146,-28.4788577038,-11.2219955645,-146.6881971875,-601.6660785038,-114.1353127925,-583.4427978934,-39.9946714322,-560.7924742479
5.64,-96.5512610167,-21.7027480968,-14.7025967317,-136.3148828125,-574.4910956412,-106.879227055,-532.2075518683,-58.2167377691,-415.3960097779
5.6466666667,-87.3314346336,-25.1079718582,-20.3163045388,-143.9949296875,-514.3675564131,-113.9824700275,-476.9609595985,-57.0466237316,-412.7478469087
5.6533333333,-78.7495877768,-15.2358868084,-26.6927529677,-131.576591875,-471.2955671694,-99.207165325,-411.7974586254,-89.3477856549,-244.519622373
5.66,-62.1614637565,1.9646948232,57.6784768447,-124.6395965625,-418.0314552819,-37.038475575,-403.1763363275,120.2736675149,-356.8940383283
5.6666666667,-53.0946731264,-9.2532641487,-21.5192755531,-112.9183946875,-346.6714827944,-82.304255485,-270.4855511564,-44.4290874849,-120.3751082395
5.6733333333,-43.7171416971,-1.8306105901,29.2272551128,-104.3532959375,-291.0883593006,-36.29820908,-259.1897733366,67.6170487239,-171.1664362836
